Accel_x,Accel_y,Accel_z,Gyr_x,Gyr_y,Gyr_z
-0.1,0.4,0.92,0.07,-3.08,0.21
-0.1,0.4,0.92,-0.14,-3.08,0.21
-0.09,0.4,0.92,-0.21,-3.22,0.42
-0.1,0.4,0.92,-0.21,-3.22,0.49
-0.09,0.4,0.92,-0.28,-2.94,0.42
-0.09,0.4,0.91,0,-3.15,0.28
-0.09,0.4,0.92,0.21,-2.94,0.42
-0.1,0.4,0.92,0.21,-2.73,0.56
-0.09,0.4,0.92,0.28,-2.73,0.63
-0.1,0.4,0.92,0.35,-2.87,0.42
-0.1,0.4,0.92,0.42,-2.87,0.35
-0.1,0.4,0.92,0.21,-2.8,0.49
-0.1,0.4,0.92,0.07,-2.94,0.21
-0.1,0.41,0.92,-0.14,-2.94,0.35
-0.1,0.4,0.92,-0.21,-3.15,0.35
-0.1,0.4,0.92,-0.21,-3.01,0.35
-0.1,0.4,0.92,-0.14,-2.8,0.21
-0.1,0.4,0.92,0.07,-2.94,0.56
-0.1,0.4,0.92,0.42,-2.94,0.56
-0.1,0.4,0.92,0.49,-2.87,0.63
-0.1,0.4,0.92,0.42,-2.66,0.56
-0.1,0.4,0.92,0.56,-3.01,0.7
-0.1,0.4,0.92,0.42,-2.66,0.49
-0.1,0.4,0.92,0.21,-2.87,0.42
-0.1,0.4,0.92,0,-3.08,0.49
-0.09,0.4,0.92,-0.21,-3.08,0.35
-0.1,0.4,0.92,-0.28,-3.08,0.49
-0.1,0.4,0.92,-0.28,-3.01,0.28
-0.1,0.4,0.92,-0.07,-3.01,0.42
-0.1,0.4,0.92,0.14,-3.01,0.42
-0.1,0.4,0.92,0.14,-3.15,0.28
-0.1,0.4,0.92,0.14,-3.01,0.35
-0.1,0.4,0.92,0.14,-2.94,0.35
-0.1,0.4,0.92,-0.07,-2.87,0.28
-0.1,0.4,0.92,-0.07,-2.94,0.35
-0.1,0.4,0.92,0,-2.87,0.42
-0.1,0.4,0.92,0,-2.8,0.49
-0.1,0.4,0.92,0,-2.8,0.21
-0.1,0.4,0.92,0.07,-2.87,0.28
-0.1,0.4,0.92,0,-3.01,0.28
-0.1,0.4,0.92,0.14,-2.94,0.49
-0.1,0.4,0.92,0.07,-2.94,0.49
-0.1,0.4,0.92,0.14,-2.94,0.28
-0.1,0.4,0.92,0,-3.08,0.49
-0.1,0.4,0.92,0,-3.15,0.42
-0.1,0.4,0.92,-0.14,-3.22,0.56
-0.1,0.4,0.92,-0.35,-3.22,0.28
-0.1,0.4,0.92,-0.42,-3.22,0.21
-0.1,0.4,0.92,-0.49,-3.22,0.35
-0.1,0.4,0.92,-0.49,-3.08,0.21
-0.1,0.4,0.92,-0.28,-3.22,0.35
-0.1,0.4,0.92,-0.14,-2.8,0.42
-0.1,0.4,0.92,0.07,-2.8,0.49
-0.09,0.4,0.92,0.21,-2.66,0.7
-0.1,0.4,0.92,0.21,-2.59,0.49
-0.1,0.4,0.92,0.28,-2.59,0.7
-0.09,0.4,0.92,0.28,-2.73,0.63
-0.1,0.4,0.92,0.21,-2.66,0.7
-0.1,0.4,0.92,0.07,-2.94,0.56
-0.1,0.4,0.92,-0.07,-2.87,0.42
-0.1,0.4,0.92,-0.14,-3.01,0.35
-0.1,0.4,0.92,-0.21,-3.08,0.07
-0.1,0.4,0.92,-0.07,-3.22,0.28
-0.1,0.4,0.92,-0.14,-3.08,0.21
-0.1,0.4,0.92,-0.14,-3.08,0.28
-0.1,0.4,0.92,0.14,-2.8,0.35
-0.1,0.4,0.92,0.21,-2.8,0.28
-0.1,0.4,0.92,0.35,-3.08,0.49
-0.1,0.4,0.92,0.42,-2.8,0.35
-0.1,0.4,0.92,0.28,-3.08,0.42
-0.1,0.4,0.92,0.14,-3.22,0.49
-0.1,0.4,0.92,0,-2.94,0.49
-0.1,0.4,0.92,-0.14,-3.08,0.49
-0.1,0.4,0.92,-0.07,-3.01,0.28
-0.1,0.4,0.92,-0.07,-2.94,0.42
-0.1,0.4,0.92,0.21,-2.8,0.42
-0.1,0.4,0.91,0.28,-2.94,0.42
-0.1,0.4,0.92,0.28,-2.94,0.56
-0.09,0.4,0.92,0.14,-2.87,0.35
-0.09,0.41,0.92,0,-3.08,0.28
-0.1,0.41,0.92,-0.28,-3.15,0.42
-0.09,0.4,0.92,-0.28,-3.36,0.49
-0.1,0.4,0.92,-0.28,-2.87,0.35
-0.09,0.4,0.92,-0.14,-3.15,0.35
-0.09,0.4,0.92,-0.14,-2.87,0.42
-0.1,0.4,0.92,-0.07,-2.73,0.28
-0.1,0.4,0.92,0,-2.8,0.35
-0.1,0.4,0.92,0.14,-2.94,0.35
-0.1,0.4,0.92,0.21,-3.01,0.42
-0.1,0.4,0.92,0.21,-2.73,0.42
-0.1,0.4,0.92,0.21,-2.73,0.63
-0.1,0.4,0.92,0.28,-2.8,0.7
-0.1,0.4,0.92,0.28,-2.87,0.63
-0.1,0.4,0.92,0.21,-2.73,0.56
-0.1,0.4,0.92,0.35,-3.01,0.63
-0.1,0.4,0.92,0.21,-2.94,0.63
-0.1,0.4,0.92,0.14,-2.94,0.49
-0.1,0.41,0.92,0.28,-3.01,0.56
-0.1,0.4,0.92,0.14,-2.94,0.63
-0.1,0.4,0.92,0,-2.87,0.49
-0.09,0.4,0.92,0,-2.8,0.56
-0.09,0.41,0.92,-0.14,-2.8,0.42
-0.09,0.4,0.92,-0.14,-2.94,0.42
-0.09,0.4,0.91,-0.21,-2.73,0.28
-0.09,0.4,0.92,-0.14,-2.8,0.35
-0.1,0.4,0.92,-0.07,-2.87,0.35
-0.1,0.4,0.92,0,-2.87,0.35
-0.1,0.4,0.92,-0.07,-2.73,0.42
-0.1,0.4,0.92,0.14,-2.87,0.56
-0.1,0.4,0.92,0.14,-2.87,0.49
-0.1,0.4,0.92,0.14,-2.8,0.49
-0.1,0.4,0.92,0.28,-3.01,0.42
-0.1,0.4,0.92,0.07,-3.08,0.49
-0.1,0.4,0.92,-0.07,-3.15,0.35
-0.1,0.4,0.92,-0.21,-3.29,0.42
-0.1,0.4,0.92,-0.42,-3.08,0.14
-0.09,0.4,0.92,-0.35,-2.94,0.14
-0.1,0.4,0.92,-0.14,-3.15,0.28
-0.1,0.4,0.92,0.07,-3.08,0.35
-0.09,0.4,0.92,0.21,-2.8,0.49
-0.09,0.4,0.92,0.35,-2.73,0.49
-0.1,0.4,0.92,0.56,-2.87,0.28
-0.1,0.4,0.92,0.49,-2.66,0.42
-0.1,0.4,0.92,0.49,-2.73,0.42
-0.1,0.4,0.92,0.49,-2.87,0.28
-0.1,0.4,0.92,0.35,-2.8,0.35
-0.1,0.4,0.92,0.21,-3.08,0.21
-0.1,0.4,0.92,0,-3.08,0.07
-0.1,0.4,0.92,-0.28,-3.22,0.21
-0.1,0.4,0.92,-0.28,-3.36,0.14
-0.09,0.4,0.92,-0.49,-3.29,0.28
-0.09,0.4,0.92,-0.42,-3.36,0.21
-0.09,0.4,0.92,-0.35,-3.08,0.35
-0.09,0.4,0.92,-0.14,-2.87,0.35
-0.09,0.4,0.92,0,-2.73,0.28
-0.1,0.4,0.92,0.35,-2.66,0.42
-0.1,0.4,0.92,0.49,-2.8,0.35
-0.1,0.4,0.92,0.49,-2.8,0.42
-0.1,0.4,0.92,0.56,-2.87,0.35
-0.1,0.4,0.92,0.21,-2.87,0.56
-0.1,0.4,0.92,0.14,-3.01,0.35
-0.1,0.4,0.92,-0.14,-2.73,0.35
-0.1,0.4,0.92,0,-3.22,0.56
-0.1,0.4,0.92,-0.07,-3.01,0.42
-0.1,0.4,0.92,0,-2.87,0.49
-0.1,0.4,0.92,0.14,-2.8,0.49
-0.1,0.4,0.92,0.21,-2.8,0.49
-0.1,0.4,0.92,0.28,-2.87,0.56
-0.1,0.4,0.92,0.35,-2.94,0.42
-0.1,0.4,0.92,0.21,-2.73,0.56
-0.1,0.4,0.92,0.14,-2.8,0.42
-0.09,0.4,0.92,0.21,-2.73,0.63
-0.1,0.4,0.92,0.28,-2.66,0.49
-0.1,0.4,0.92,0.35,-2.87,0.35
-0.1,0.4,0.92,0.49,-2.66,0.42
-0.1,0.4,0.92,0.35,-3.01,0.42
-0.1,0.4,0.92,0.35,-2.87,0.35
-0.1,0.4,0.92,0.42,-3.01,0.35
-0.1,0.4,0.92,0.28,-3.01,0.28
-0.1,0.4,0.92,0.07,-3.08,0.28
-0.1,0.4,0.92,0,-3.15,0.28
-0.1,0.41,0.92,-0.21,-3.08,0.35
-0.1,0.4,0.92,-0.35,-3.01,0.28
-0.09,0.4,0.92,-0.21,-3.08,0.28
-0.1,0.4,0.92,-0.28,-2.8,0
-0.1,0.4,0.92,-0.14,-2.94,0.14
-0.1,0.4,0.92,0,-2.94,0.42
-0.1,0.4,0.92,0,-3.08,0.28
-0.1,0.4,0.92,0.07,-3.15,0.35
-0.1,0.4,0.92,0.14,-3.29,0.42
-0.1,0.4,0.92,-0.14,-2.8,0.21
-0.09,0.4,0.92,-0.07,-3.01,0.42
-0.1,0.4,0.92,-0.07,-2.59,0.28
-0.1,0.4,0.92,-0.14,-2.73,0.49
-0.1,0.4,0.92,-0.07,-2.87,0.49
-0.1,0.4,0.92,0.14,-3.01,0.56
-0.1,0.4,0.92,0.07,-2.94,0.63
-0.1,0.4,0.92,0.21,-3.08,0.56
-0.1,0.4,0.92,0.28,-3.01,0.28
-0.1,0.4,0.92,0.35,-2.87,0.28
-0.1,0.4,0.92,0.21,-2.94,0.07
-0.1,0.4,0.92,0.35,-2.94,0.28
-0.09,0.4,0.92,0.35,-2.8,0.35
-0.09,0.4,0.92,0.35,-2.66,0.49
-0.1,0.4,0.92,0.42,-2.94,0.21
-0.1,0.4,0.91,0.56,-3.01,0.42
-0.1,0.4,0.92,0.56,-2.73,0.42
-0.09,0.4,0.92,0.56,-2.8,0.35
-0.1,0.41,0.92,0.49,-2.66,0.28
-0.1,0.41,0.92,0.28,-2.87,0.49
-0.1,0.4,0.92,0.14,-2.66,0.28
-0.1,0.4,0.92,0.07,-2.8,0.28
-0.1,0.4,0.92,-0.07,-2.8,0.35
-0.1,0.4,0.92,0,-3.15,0.49
-0.1,0.4,0.92,-0.07,-3.08,0.49
-0.1,0.4,0.92,-0.21,-3.22,0.42
-0.1,0.4,0.92,-0.28,-3.43,0.21
-0.1,0.4,0.92,-0.35,-3.08,0.42
-0.09,0.4,0.92,-0.21,-3.15,0.42
-0.1,0.4,0.92,-0.07,-3.22,0.28
-0.1,0.4,0.92,0,-3.15,0.28
-0.1,0.4,0.92,0.14,-2.87,0.28
-0.1,0.4,0.92,0.14,-2.8,0.21
-0.1,0.4,0.92,0.28,-2.8,0.28
-0.1,0.4,0.92,0.42,-2.66,0.28
-0.1,0.4,0.92,0.49,-2.52,0.35
-0.1,0.4,0.92,0.63,-2.66,0.49
-0.1,0.4,0.92,0.63,-2.59,0.56
-0.1,0.4,0.92,0.56,-2.52,0.56
-0.1,0.4,0.92,0.49,-3.08,0.77
-0.1,0.4,0.92,0.14,-3.08,0.7
-0.1,0.4,0.92,0,-3.01,0.56
-0.09,0.4,0.92,-0.07,-3.15,0.7
-0.09,0.4,0.92,-0.07,-3.08,0.56
-0.09,0.4,0.92,0.07,-3.01,0.35
-0.09,0.4,0.92,0.35,-2.94,0.49
-0.09,0.4,0.92,0.42,-2.66,0.42
-0.09,0.4,0.92,0.42,-2.59,0.28
-0.1,0.4,0.92,0.7,-2.8,0.28
-0.1,0.41,0.92,0.56,-2.66,0.21
-0.1,0.41,0.92,0.49,-2.8,-0.07
-0.1,0.41,0.92,0.28,-2.8,-0.07
-0.1,0.41,0.92,0,-2.66,0.14
-0.1,0.41,0.92,-0.07,-2.8,0.14
-0.11,0.41,0.92,-0.35,-3.08,0.21
-0.11,0.41,0.92,-0.56,-3.08,0.21
-0.1,0.41,0.92,-0.56,-3.15,0.42
-0.1,0.41,0.92,-0.7,-3.36,0.56
-0.1,0.4,0.92,-0.91,-3.43,0.63
-0.1,0.4,0.92,-1.05,-3.5,0.77
-0.1,0.4,0.92,-1.05,-3.36,0.7
-0.09,0.4,0.92,-1.05,-3.08,0.77
-0.09,0.4,0.92,-0.56,-3.36,0.77
-0.09,0.4,0.91,-0.14,-3.08,0.77
-0.09,0.4,0.92,0.07,-2.8,0.84
-0.09,0.4,0.92,0.35,-2.66,0.98
-0.1,0.4,0.92,0.42,-2.52,1.05
-0.09,0.4,0.92,0.35,-2.59,0.84
-0.09,0.4,0.92,-0.28,-2.8,0.91
-0.09,0.4,0.92,-0.7,-3.01,0.84
-0.09,0.4,0.92,-0.77,-2.94,0.91
-0.1,0.39,0.92,-0.7,-2.94,0.77
-0.1,0.39,0.92,-0.14,-2.87,0.77
-0.1,0.39,0.92,0.07,-2.94,0.42
-0.1,0.39,0.92,0,-2.94,0.28
-0.1,0.4,0.92,0.07,-3.5,0.14
-0.1,0.4,0.92,-0.14,-3.43,0.07
-0.1,0.4,0.92,-0.21,-3.5,0
-0.09,0.4,0.92,0,-3.36,0.07
-0.09,0.4,0.92,0.21,-3.22,0.07
-0.09,0.4,0.92,0.42,-3.29,0.07
-0.09,0.4,0.92,0.7,-2.94,0.07
-0.09,0.4,0.92,0.84,-3.01,0.14
-0.09,0.4,0.92,0.98,-2.87,0.21
-0.1,0.4,0.92,0.91,-2.8,0.42
-0.1,0.4,0.92,0.91,-2.8,0.63
-0.1,0.4,0.92,0.91,-2.94,0.84
-0.1,0.4,0.92,0.77,-2.87,0.91
-0.1,0.4,0.92,0.63,-2.87,0.91
-0.1,0.41,0.92,0.49,-2.87,0.84
-0.1,0.41,0.92,0,-2.73,0.7
-0.09,0.41,0.92,-0.14,-2.73,0.56
-0.09,0.41,0.92,-0.28,-2.73,0.49
-0.09,0.41,0.91,-0.14,-2.8,0.49
-0.09,0.4,0.92,0.07,-2.94,0.35
-0.09,0.4,0.92,0.14,-2.73,0.14
-0.09,0.4,0.92,0.07,-2.73,0.28
-0.09,0.4,0.92,0.07,-2.8,0.14
-0.09,0.4,0.92,0,-2.73,0.14
-0.09,0.4,0.91,0.14,-2.87,0.07
-0.09,0.4,0.92,0.28,-2.8,0.21
-0.1,0.4,0.92,0.42,-2.38,0.07
-0.1,0.4,0.92,0.56,-2.45,0.14
-0.1,0.4,0.92,0.63,-2.45,0.21
-0.1,0.4,0.92,0.49,-2.31,0.49
-0.1,0.4,0.92,0.28,-2.59,0.63
-0.1,0.4,0.92,0.28,-2.94,0.98
-0.1,0.4,0.92,0.14,-2.87,0.98
-0.1,0.39,0.92,0.21,-2.66,1.05
-0.1,0.4,0.92,0.28,-3.01,1.26
-0.1,0.4,0.92,0.35,-2.87,1.12
-0.1,0.4,0.92,0.35,-2.87,1.05
-0.1,0.4,0.92,0.35,-3.01,0.98
-0.1,0.4,0.92,0.63,-3.01,0.49
-0.1,0.4,0.92,0.84,-3.15,0.28
-0.1,0.4,0.92,0.98,-3.15,0.07
-0.1,0.4,0.92,0.77,-3.22,0
-0.1,0.4,0.92,0.42,-3.43,-0.14
-0.1,0.41,0.92,0.14,-3.64,-0.28
-0.1,0.41,0.92,0.21,-3.71,-0.14
-0.09,0.41,0.92,0.07,-3.5,-0.14
-0.09,0.41,0.91,0,-3.29,-0.21
-0.1,0.41,0.91,0.21,-3.43,-0.21
-0.1,0.41,0.91,-0.14,-3.36,-0.21
-0.1,0.42,0.92,-0.35,-3.29,-0.07
-0.1,0.41,0.92,-0.77,-3.43,0.14
-0.1,0.41,0.92,-1.12,-3.29,0.21
-0.1,0.41,0.92,-1.33,-3.64,0.21
-0.1,0.41,0.92,-1.47,-3.57,0.35
-0.1,0.41,0.92,-1.54,-3.5,0.42
-0.1,0.4,0.92,-1.54,-3.64,0.42
-0.1,0.4,0.92,-1.4,-3.43,0.42
-0.1,0.4,0.92,-1.12,-3.15,0.35
-0.1,0.4,0.92,-0.7,-3.15,0.28
-0.1,0.39,0.92,-0.21,-3.15,0.35
-0.1,0.39,0.92,0.07,-2.87,0.35
-0.09,0.39,0.92,0.21,-2.73,0.35
-0.09,0.39,0.92,0.49,-2.87,0.07
-0.09,0.39,0.92,0.56,-3.01,0.07
-0.09,0.39,0.92,0.63,-2.73,0.07
-0.09,0.4,0.92,0.7,-3.01,0.07
-0.09,0.4,0.92,0.56,-2.94,0
-0.09,0.4,0.92,0.42,-2.94,0
-0.09,0.4,0.92,0.42,-2.94,0.21
-0.09,0.4,0.92,0.42,-3.08,0.21
-0.09,0.4,0.92,0.63,-3.29,0.28
-0.09,0.4,0.92,0.7,-3.01,0.28
-0.09,0.4,0.92,0.84,-2.73,0.42
-0.09,0.4,0.92,1.12,-2.73,0.7
-0.09,0.4,0.92,1.19,-2.24,0.7
-0.09,0.4,0.92,1.33,-2.03,0.84
-0.1,0.4,0.92,1.4,-1.96,0.84
-0.1,0.4,0.91,1.26,-2.17,0.7
-0.11,0.41,0.91,0.84,-2.73,0.56
-0.1,0.4,0.92,1.12,-2.38,0.7
-0.1,0.41,0.92,0.98,-2.59,0.49
-0.1,0.41,0.92,0.63,-3.15,0.28
-0.1,0.41,0.92,0.21,-3.08,0.28
-0.1,0.41,0.92,-0.21,-3.01,0
-0.1,0.41,0.92,-0.14,-3.15,0
-0.1,0.41,0.92,-0.14,-3.01,-0.07
-0.1,0.4,0.92,0.07,-2.94,-0.21
-0.1,0.4,0.92,0.21,-3.01,0
-0.1,0.4,0.91,0.28,-3.22,0
-0.1,0.4,0.92,0.49,-3.29,0.07
-0.1,0.41,0.92,0.49,-3.22,0.14
-0.1,0.41,0.92,0.35,-2.94,0.14
-0.1,0.41,0.92,0.42,-2.94,0.42
-0.1,0.41,0.92,0.28,-2.73,0.49
-0.1,0.41,0.92,0.21,-2.73,0.42
-0.1,0.4,0.92,0.28,-2.45,0.56
-0.1,0.4,0.92,0.21,-2.45,0.63
-0.1,0.4,0.92,0.21,-2.52,0.63
-0.1,0.4,0.92,0.07,-2.73,0.77
-0.1,0.4,0.92,-0.21,-3.01,0.7
-0.1,0.4,0.92,-0.42,-3.22,0.7
-0.1,0.4,0.92,-0.49,-3.29,0.63
-0.09,0.4,0.92,-0.42,-3.15,0.56
-0.1,0.4,0.92,-0.21,-3.01,0.28
-0.1,0.4,0.92,0.14,-3.08,0.21
-0.1,0.4,0.92,0.49,-3.08,0.07
-0.1,0.4,0.92,0.28,-3.08,-0.07
-0.09,0.39,0.92,0.63,-3.08,-0.14
-0.09,0.4,0.92,0.84,-3.01,-0.07
-0.09,0.4,0.91,0.84,-2.73,0.14
-0.08,0.41,0.91,1.05,-2.94,0.14
-0.09,0.41,0.91,1.05,-2.8,0.21
-0.09,0.41,0.91,0.98,-2.73,0.14
-0.09,0.41,0.91,0.77,-2.45,0.07
-0.09,0.41,0.91,0.63,-2.38,0
-0.09,0.41,0.91,0.21,-2.59,0.21
-0.09,0.41,0.91,0.42,-2.31,0.28
-0.1,0.41,0.91,0.14,-2.45,0.42
-0.1,0.41,0.92,0.42,-2.38,0.77
-0.1,0.41,0.92,0.49,-2.31,0.84
-0.1,0.41,0.92,0.56,-2.38,0.7
-0.11,0.41,0.92,0.35,-2.38,0.84
-0.11,0.41,0.92,0.28,-2.59,0.7
-0.11,0.41,0.92,0.07,-2.31,0.56
-0.11,0.41,0.92,-0.07,-2.73,0.42
-0.11,0.41,0.92,-0.42,-2.8,0.49
-0.11,0.41,0.92,-0.56,-3.08,0.42
-0.1,0.4,0.92,-0.77,-3.01,0.49
-0.1,0.4,0.92,-0.84,-3.08,0.49
-0.1,0.4,0.92,-0.84,-3.15,0.35
-0.09,0.4,0.92,-0.77,-3.08,0.49
-0.09,0.39,0.92,-0.63,-3.01,0.35
-0.09,0.4,0.92,-0.42,-3.01,0.35
-0.09,0.39,0.92,-0.14,-3.08,0.28
-0.09,0.39,0.92,0.07,-2.94,0.56
-0.09,0.4,0.92,0.28,-2.94,0.56
-0.09,0.4,0.92,0.49,-2.8,0.49
-0.09,0.4,0.92,0.63,-2.59,0.42
-0.1,0.4,0.92,0.77,-2.59,0.63
-0.1,0.4,0.92,0.84,-2.52,0.49
-0.1,0.4,0.92,0.91,-2.73,0.7
-0.1,0.4,0.92,0.77,-2.66,0.84
-0.1,0.4,0.92,0.7,-2.94,0.84
-0.1,0.4,0.92,1.12,-2.94,0.77
-0.1,0.4,0.92,0.98,-2.73,0.7
-0.1,0.41,0.92,1.26,-2.8,0.49
-0.1,0.41,0.92,1.12,-2.8,0.42
-0.11,0.41,0.92,0.84,-2.94,0.42
-0.11,0.42,0.91,-17.5,-3.5,0
-0.1,0.39,0.92,0.14,-3.36,0.35
-0.11,0.42,0.92,-0.91,-3.92,-0.21
-0.1,0.4,0.92,-0.07,-3.5,-0.14
-0.1,0.41,0.92,-0.07,-3.78,-0.35
-0.1,0.4,0.91,-0.42,-3.99,-0.63
-0.1,0.4,0.92,-0.35,-3.78,-0.35
-0.09,0.41,0.92,-0.63,-3.92,-0.63
-0.1,0.39,0.92,-0.14,-3.92,-0.49
-0.09,0.4,0.92,0.14,-3.22,-0.63
-0.09,0.41,0.91,0.21,-3.29,-0.56
-0.09,0.4,0.91,0.84,-3.01,-0.21
-0.09,0.4,0.91,1.12,-2.87,-0.14
-0.09,0.41,0.91,1.26,-3.08,-0.07
-0.09,0.41,0.91,0.98,-3.08,0.07
-0.09,0.41,0.91,0.63,-3.08,0.21
-0.09,0.41,0.91,0.42,-2.87,0.49
-0.09,0.41,0.91,0.21,-2.66,0.56
-0.09,0.41,0.91,0.28,-2.52,0.63
-0.09,0.41,0.91,0.49,-2.45,0.63
-0.1,0.41,0.91,0.7,-2.59,0.77
-0.1,0.41,0.92,0.77,-2.52,0.84
-0.1,0.41,0.92,0.84,-2.59,0.7
-0.1,0.41,0.92,0.84,-2.8,0.42
-0.1,0.41,0.92,0.63,-2.73,0.28
-0.1,0.41,0.92,0.7,-2.94,0.35
-0.1,0.41,0.92,0.84,-3.08,0.14
-0.11,0.41,0.92,0.7,-3.29,0.07
-0.1,0.4,0.92,0.56,-3.43,0
-0.1,0.4,0.92,0.63,-3.5,-0.07
-0.1,0.39,0.92,0.91,-3.57,0
-0.11,0.39,0.92,0.91,-3.01,0
-0.11,0.39,0.92,1.12,-2.94,-0.21
-0.11,0.39,0.93,1.05,-2.87,-0.35
-0.12,0.39,0.93,1.05,-3.43,-0.63
-0.12,0.4,0.93,1.05,-3.71,-0.98
-0.12,0.4,0.93,0.91,-3.57,-0.98
-0.12,0.4,0.93,0.7,-3.99,-0.98
-0.12,0.4,0.92,0.14,-4.62,-1.26
-0.12,0.41,0.92,-0.63,-5.32,-1.75
-0.11,0.39,0.92,-0.42,-5.39,-2.1
-0.09,0.39,0.91,0.07,-4.83,-2.52
-0.08,0.39,0.91,0.28,-5.04,-2.87
-0.08,0.39,0.91,0.77,-5.11,-3.29
-0.09,0.4,0.92,0.84,-5.04,-3.71
-0.08,0.4,0.92,1.54,-5.11,-4.27
-0.09,0.4,0.92,1.75,-5.39,-4.34
-0.09,0.4,0.91,1.12,-5.39,-4.62
-0.09,0.4,0.9,1.12,-5.46,-4.83
-0.09,0.4,0.9,1.26,-5.18,-4.83
-0.08,0.41,0.9,1.26,-5.18,-4.83
-0.09,0.42,0.91,1.12,-5.32,-4.69
-0.09,0.42,0.91,1.19,-5.25,-5.25
-0.1,0.42,0.91,0.91,-5.04,-5.53
-0.09,0.41,0.91,0.42,-4.62,-6.02
-0.09,0.41,0.92,0,-4.83,-6.09
-0.1,0.4,0.92,-0.07,-5.18,-6.3
-0.11,0.4,0.92,0.21,-5.04,-6.16
-0.11,0.39,0.92,0.28,-5.46,-6.02
-0.11,0.39,0.92,0.56,-5.74,-6.02
-0.11,0.39,0.93,0.63,-5.81,-6.09
-0.11,0.39,0.93,0.84,-5.81,-6.09
-0.11,0.39,0.93,0.91,-5.74,-6.3
-0.11,0.39,0.93,1.05,-5.74,-6.51
-0.11,0.39,0.93,1.19,-5.95,-6.79
-0.11,0.39,0.93,1.12,-6.09,-7.14
-0.11,0.39,0.92,1.19,-6.09,-7.49
-0.11,0.39,0.92,1.19,-6.44,-7.91
-0.11,0.39,0.92,1.4,-6.79,-8.05
-0.1,0.39,0.92,1.61,-7.21,-8.4
-0.1,0.39,0.92,1.54,-7.49,-8.54
-0.09,0.39,0.92,1.54,-7.84,-9.03
-0.09,0.4,0.92,1.4,-7.7,-9.45
-0.09,0.4,0.92,1.47,-7.56,-9.8
-0.09,0.4,0.92,1.54,-7.49,-10.22
-0.09,0.4,0.91,1.68,-7.63,-10.29
-0.1,0.4,0.91,2.1,-7.42,-10.43
-0.1,0.41,0.92,2.66,-7.63,-10.36
-0.1,0.41,0.92,2.94,-8.19,-10.01
-0.1,0.41,0.92,2.73,-7.56,-9.94
-0.1,0.42,0.92,2.45,-7.42,-9.87
-0.1,0.43,0.92,2.17,-7.28,-9.87
-0.1,0.43,0.91,1.61,-7.21,-9.8
-0.09,0.42,0.91,1.68,-6.93,-10.01
-0.09,0.43,0.89,0.56,-8.4,-10.22
-0.1,0.42,0.91,0.98,-6.65,-9.87
-0.09,0.43,0.9,0.42,-7.49,-10.29
-0.09,0.41,0.92,1.19,-6.65,-9.94
-0.09,0.41,0.9,0.21,-7.56,-9.94
-0.1,0.42,0.91,0,-7.63,-10.08
-0.09,0.4,0.92,0.49,-7.56,-10.08
-0.09,0.41,0.92,0.21,-7.91,-10.29
-0.09,0.41,0.92,0.14,-7.49,-10.36
-0.09,0.4,0.92,0.77,-7.63,-10.43
-0.09,0.41,0.91,0.77,-7.35,-10.36
-0.09,0.41,0.92,1.12,-7.56,-10.36
-0.09,0.41,0.91,1.05,-7.42,-10.43
-0.09,0.41,0.91,0.91,-7.77,-10.22
-0.09,0.41,0.91,0.7,-7.84,-9.94
-0.1,0.42,0.91,0.35,-7.7,-9.73
-0.1,0.42,0.91,0.42,-7.56,-9.59
-0.1,0.42,0.91,0.35,-7.7,-9.31
-0.1,0.42,0.91,0.49,-7.35,-8.82
-0.1,0.42,0.92,0.84,-7.28,-8.61
-0.1,0.42,0.92,1.12,-7,-8.4
-0.11,0.42,0.92,1.19,-6.58,-8.47
-0.11,0.42,0.92,1.12,-6.37,-8.61
-0.11,0.42,0.92,1.54,-6.23,-8.4
-0.11,0.42,0.92,1.26,-6.23,-8.26
-0.09,0.41,0.92,1.89,-6.16,-7.98
-0.09,0.41,0.91,2.17,-6.51,-7.77
-0.08,0.42,0.9,0.7,-7.63,-7.91
-0.09,0.42,0.91,0.84,-6.58,-7.42
-0.08,0.41,0.91,1.75,-6.44,-7.14
-0.08,0.41,0.91,1.89,-5.74,-7.21
-0.08,0.41,0.91,2.52,-5.95,-7
-0.09,0.41,0.91,2.59,-5.74,-6.86
-0.09,0.42,0.91,2.59,-6.16,-6.86
-0.09,0.43,0.91,2.17,-6.02,-6.93
-0.09,0.43,0.91,2.03,-6.02,-7.07
-0.1,0.44,0.91,1.82,-6.23,-7.07
-0.1,0.45,0.91,1.33,-5.88,-7.07
-0.1,0.45,0.91,0.98,-6.02,-7
-0.1,0.44,0.91,0.84,-5.95,-6.72
-0.1,0.44,0.91,0.63,-5.95,-6.3
-0.1,0.43,0.91,0.63,-5.6,-5.53
-0.1,0.43,0.91,0.42,-5.32,-5.39
-0.1,0.43,0.91,0.35,-5.25,-4.9
-0.1,0.42,0.91,0.21,-4.97,-4.62
-0.1,0.42,0.91,0.21,-4.76,-4.34
-0.1,0.42,0.91,0,-4.76,-4.13
-0.09,0.43,0.9,-0.21,-4.83,-4.2
-0.09,0.43,0.9,-0.63,-5.25,-4.06
-0.08,0.43,0.9,-0.98,-5.81,-3.71
-0.08,0.42,0.9,-1.33,-5.6,-3.43
-0.08,0.42,0.91,-1.54,-5.11,-3.15
-0.07,0.42,0.91,-1.26,-5.11,-2.59
-0.07,0.42,0.91,-1.19,-4.62,-2.17
-0.07,0.43,0.91,-0.77,-4.2,-1.47
-0.08,0.43,0.91,-0.21,-3.64,-0.91
-0.08,0.44,0.91,0.21,-3.01,-0.56
-0.08,0.44,0.91,0.28,-2.52,0.14
-0.09,0.44,0.91,0.7,-2.17,0.63
-0.1,0.44,0.9,0.98,-1.82,1.12
-0.1,0.44,0.9,1.26,-1.4,1.54
-0.1,0.45,0.9,1.05,-1.26,2.1
-0.1,0.45,0.9,0.63,-1.26,2.59
-0.11,0.45,0.91,0.07,-1.33,2.87
-0.11,0.44,0.91,-0.35,-1.26,2.94
-0.11,0.43,0.91,-1.05,-1.4,3.08
-0.11,0.43,0.91,-1.75,-1.47,3.01
-0.1,0.43,0.91,-2.31,-1.47,2.94
-0.1,0.42,0.91,-2.59,-1.75,2.8
-0.1,0.41,0.91,-2.45,-1.61,2.8
-0.1,0.41,0.92,-1.89,-1.68,2.59
-0.1,0.4,0.92,-1.33,-1.54,2.52
-0.1,0.4,0.92,-0.91,-1.61,2.59
-0.09,0.4,0.92,-0.56,-1.47,2.52
-0.09,0.4,0.92,-0.49,-1.47,2.66
-0.09,0.4,0.92,-0.14,-1.47,2.59
-0.09,0.39,0.92,-0.07,-1.4,2.52
-0.09,0.39,0.92,0.14,-1.19,2.59
-0.09,0.39,0.92,0.28,-1.12,2.66
-0.09,0.39,0.92,0.49,-0.91,2.45
-0.09,0.39,0.92,0.7,-0.7,2.45
-0.1,0.4,0.92,0.84,-1.12,2.31
-0.1,0.4,0.92,1.05,-1.33,2.1
-0.11,0.4,0.92,1.33,-1.54,2.03
-0.11,0.4,0.92,1.33,-1.89,1.68
-0.11,0.41,0.92,0.91,-1.96,1.47
-0.11,0.41,0.92,0.42,-2.31,0.84
-0.11,0.41,0.92,-0.07,-2.66,0.56
-0.12,0.41,0.92,-0.56,-2.66,0.14
-0.11,0.41,0.92,-0.77,-3.01,-0.21
-0.1,0.41,0.92,-0.91,-3.08,-0.42
-0.09,0.39,0.91,-1.4,-3.92,-0.35
-0.11,0.4,0.92,-1.54,-3.92,-0.7
-0.1,0.39,0.92,-0.91,-3.92,-0.49
-0.1,0.39,0.92,-0.63,-4.06,-0.42
-0.09,0.39,0.92,-0.28,-4.06,-0.28
-0.09,0.4,0.92,-0.07,-4.13,-0.35
-0.09,0.4,0.91,0,-3.64,-0.56
-0.09,0.41,0.91,0.21,-3.36,-0.63
-0.09,0.41,0.91,0.35,-3.36,-0.56
-0.09,0.42,0.91,0.56,-3.15,-0.63
-0.1,0.42,0.91,0.77,-3.22,-0.91
-0.1,0.42,0.91,0.56,-3.29,-0.7
-0.1,0.42,0.91,0.07,-3.36,-0.77
-0.09,0.41,0.91,-0.14,-3.57,-0.77
-0.09,0.42,0.91,-0.7,-3.5,-0.98
-0.08,0.42,0.91,-0.91,-3.5,-1.12
-0.08,0.41,0.91,-0.7,-3.5,-1.19
-0.09,0.41,0.91,-0.42,-3.5,-1.05
-0.1,0.41,0.91,0.21,-3.36,-1.05
-0.1,0.41,0.91,0.63,-3.08,-0.7
-0.1,0.41,0.91,0.77,-2.38,-0.49
-0.1,0.41,0.91,0.91,-2.31,-0.21
-0.1,0.42,0.91,1.05,-2.59,0.35
-0.11,0.42,0.91,1.19,-2.8,0.63
-0.11,0.42,0.91,0.84,-2.66,0.91
-0.11,0.41,0.92,0.56,-2.45,1.4
-0.11,0.41,0.92,0.21,-2.59,1.4
-0.11,0.41,0.92,-0.07,-2.52,1.61
-0.1,0.41,0.92,-0.07,-2.38,1.54
-0.1,0.41,0.92,0.07,-2.45,1.05
-0.11,0.41,0.92,0.42,-2.59,0.49
-0.11,0.41,0.92,0.28,-2.87,0.42
-0.11,0.4,0.92,0.21,-3.15,0.28
-0.1,0.41,0.92,-0.07,-3.92,0.28
-0.1,0.4,0.92,-0.56,-3.99,0.35
-0.1,0.41,0.92,-0.98,-4.27,0.42
-0.09,0.41,0.92,-1.33,-4.55,0.07
-0.09,0.4,0.91,-1.4,-4.27,0.14
-0.09,0.4,0.91,-1.47,-3.78,-0.14
-0.09,0.4,0.9,-1.19,-3.5,-0.35
-0.08,0.41,0.9,-0.84,-3.36,-0.7
-0.09,0.41,0.9,-0.7,-3.22,-0.98
-0.09,0.41,0.9,-0.7,-3.43,-0.98
-0.09,0.41,0.91,-1.26,-3.71,-1.12
-0.1,0.41,0.91,-1.75,-3.92,-0.7
-0.1,0.41,0.92,-2.17,-3.57,-0.49
-0.1,0.42,0.92,-1.75,-3.78,-0.21
-0.09,0.43,0.92,-1.12,-3.36,-0.28
-0.09,0.42,0.93,-0.28,-2.8,-0.21
-0.09,0.41,0.92,0.14,-2.31,0
-0.09,0.41,0.92,0.63,-1.82,0.42
-0.09,0.41,0.91,1.33,-1.61,0.77
-0.09,0.41,0.91,2.17,-1.54,1.05
-0.09,0.41,0.91,2.8,-1.12,1.26
-0.09,0.4,0.91,3.22,-1.19,1.68
-0.1,0.41,0.91,2.94,-1.19,1.61
-0.1,0.4,0.91,2.59,-1.47,1.61
-0.1,0.4,0.91,2.24,-1.47,1.61
-0.1,0.4,0.92,1.61,-1.61,1.68
-0.1,0.39,0.92,1.05,-1.26,1.68
-0.1,0.39,0.92,0.35,-1.68,1.47
-0.1,0.39,0.92,0,-1.61,1.12
-0.09,0.39,0.92,0.14,-1.82,0.7
-0.1,0.39,0.92,0.63,-2.1,0.35
-0.1,0.4,0.93,0.98,-2.38,0.07
-0.11,0.41,0.92,1.54,-2.17,-0.42
-0.11,0.42,0.92,2.38,-2.38,-0.63
-0.12,0.43,0.92,2.94,-2.66,-0.7
-0.13,0.43,0.93,3.57,-2.73,-0.49
-0.12,0.44,0.93,3.85,-2.31,0
-0.12,0.43,0.92,3.5,-1.96,0.7
-0.11,0.42,0.91,2.73,-1.47,1.33
-0.11,0.42,0.91,1.4,-1.26,1.75
-0.11,0.43,0.9,0.21,-1.96,1.89
-0.1,0.41,0.89,0.91,-2.1,2.59
-0.11,0.42,0.9,0.49,-2.31,2.59
-0.1,0.43,0.9,0.56,-2.24,2.59
-0.09,0.43,0.91,0.98,-2.24,2.45
-0.09,0.43,0.92,1.33,-2.03,2.31
-0.1,0.43,0.91,1.68,-2.31,1.68
-0.1,0.42,0.92,1.4,-2.38,1.33
-0.11,0.41,0.91,1.05,-3.43,1.26
-0.1,0.41,0.9,-0.63,-2.38,0.77
-0.09,0.4,0.91,-0.98,-2.73,0.63
-0.09,0.39,0.91,-0.84,-2.8,0.7
-0.09,0.39,0.92,-0.49,-3.29,0.42
-0.09,0.39,0.92,0.21,-3.99,0.35
-0.09,0.39,0.93,0.77,-4.41,-0.14
-0.1,0.39,0.94,1.47,-4.41,-0.07
-0.1,0.4,0.93,2.03,-3.99,0.07
-0.1,0.41,0.91,1.96,-3.36,-0.91
-0.08,0.4,0.91,1.68,-2.1,-1.61
-0.07,0.41,0.9,1.75,-2.59,-2.17
-0.08,0.42,0.89,2.24,-3.08,-2.45
-0.11,0.43,0.9,2.45,-4.27,-2.8
-0.11,0.43,0.9,1.54,-3.78,-2.1
-0.05,0.47,0.9,0.35,-4.41,-2.73
-0.12,0.44,0.91,-0.91,-5.11,-2.66
-0.12,0.44,0.91,-1.54,-4.83,-2.31
-0.12,0.45,0.91,-2.24,-5.39,-1.82
-0.12,0.44,0.91,-2.94,-5.04,-1.47
-0.11,0.43,0.9,-3.57,-4.69,-1.54
-0.09,0.42,0.9,-4.2,-4.41,-1.33
-0.1,0.41,0.89,-4.62,-4.83,-1.4
-0.08,0.4,0.9,-4.83,-4.34,-1.54
-0.08,0.4,0.9,-4.41,-4.55,-1.26
-0.08,0.41,0.91,-3.64,-4.9,-1.26
-0.06,0.41,0.93,-1.82,-3.99,-1.47
-0.08,0.41,0.93,-1.47,-4.62,-1.75
-0.09,0.41,0.93,-0.7,-5.25,-2.03
-0.09,0.43,0.93,0.49,-4.48,-1.54
-0.1,0.42,0.93,2.1,-2.94,-0.56
-0.11,0.42,0.91,3.22,-2.17,0.56
-0.12,0.41,0.9,3.85,-1.19,2.1
-0.13,0.43,0.89,2.59,-0.56,2.73
-0.12,0.45,0.89,0.98,-1.12,2.59
-0.11,0.44,0.89,-0.49,-1.19,2.24
-0.11,0.43,0.91,-2.45,-1.54,2.38
-0.11,0.42,0.91,-3.5,-2.1,2.31
-0.12,0.42,0.92,-4.69,-2.59,2.24
-0.12,0.42,0.92,-5.11,-2.8,1.89
-0.15,0.38,0.91,-4.34,-2.31,2.52
-0.11,0.39,0.92,-3.57,-2.94,1.54
-0.1,0.39,0.92,-3.08,-3.71,1.4
-0.1,0.38,0.93,-2.38,-3.64,1.33
-0.09,0.38,0.93,-1.75,-3.85,0.77
-0.09,0.39,0.93,-1.54,-3.92,0.21
-0.09,0.39,0.93,-1.4,-3.99,-0.21
-0.09,0.39,0.93,-1.19,-4.06,-0.56
-0.09,0.39,0.92,-0.84,-3.22,-0.77
-0.08,0.39,0.92,0.07,-2.59,-0.63
-0.09,0.4,0.91,0.84,-2.66,-0.35
-0.1,0.39,0.91,1.54,-2.73,-0.14
-0.11,0.39,0.91,1.33,-3.22,-0.14
-0.1,0.39,0.91,0.42,-3.78,-0.42
-0.1,0.39,0.92,-0.49,-4.06,-0.56
-0.08,0.39,0.92,-1.4,-4.06,-0.91
-0.08,0.4,0.92,-1.75,-4.34,-1.82
-0.08,0.4,0.93,-1.12,-4.13,-2.24
-0.09,0.4,0.92,-0.21,-3.43,-2.66
-0.1,0.4,0.92,0.56,-3.29,-2.59
-0.1,0.41,0.91,0.91,-3.29,-2.38
-0.11,0.41,0.91,0.84,-3.64,-2.1
-0.12,0.43,0.91,0.35,-4.2,-2.24
-0.12,0.43,0.9,-0.63,-4.69,-2.1
-0.1,0.41,0.91,-0.56,-3.85,-1.61
-0.07,0.41,0.92,1.47,-2.24,-0.7
-0.07,0.41,0.93,4.2,-0.49,0.07
-0.1,0.42,0.91,5.18,-1.19,0.84
-0.1,0.43,0.91,5.32,-0.98,1.12
-0.12,0.43,0.9,4.48,-1.4,1.4
-0.12,0.44,0.9,2.8,-2.1,1.4
-0.11,0.41,0.92,3.29,-2.52,1.96
-0.12,0.43,0.91,2.59,-1.96,1.82
-0.12,0.44,0.88,-1.68,-0.98,0.7
-0.08,0.4,0.87,-4.48,-0.07,0.56
-0.07,0.4,0.88,-5.53,-1.54,0.21
-0.1,0.4,0.92,-4.76,-3.78,-0.14
-0.13,0.42,0.95,-4.69,-5.95,-0.14
-0.12,0.4,0.96,-3.57,-5.18,-0.35
-0.1,0.39,0.96,-3.71,-3.43,-1.12
-0.1,0.38,0.94,-4.41,-3.99,-1.4
-0.09,0.38,0.93,-2.24,-4.06,-1.12
-0.09,0.38,0.92,1.19,-3.22,-0.91
-0.1,0.38,0.91,3.78,-2.59,-0.42
-0.1,0.38,0.91,5.25,-2.31,-0.42
-0.1,0.39,0.91,5.32,-2.38,-0.49
-0.12,0.42,0.9,3.85,-3.29,-1.12
-0.11,0.42,0.9,1.75,-5.04,-1.61
-0.1,0.43,0.9,-1.12,-6.02,-1.61
-0.1,0.43,0.91,-3.5,-6.79,-1.54
-0.1,0.43,0.91,-5.11,-7,-1.26
-0.11,0.43,0.91,-6.09,-7.42,-0.84
-0.1,0.43,0.91,-6.44,-7.28,-0.98
-0.1,0.44,0.91,-6.51,-7.07,-0.91
-0.11,0.43,0.91,-6.93,-8.12,-0.63
-0.11,0.43,0.91,-6.93,-8.19,-0.14
-0.11,0.43,0.92,-7,-7.84,0.07
-0.11,0.43,0.92,-7.35,-7.7,0.56
-0.1,0.42,0.92,-7.56,-7.14,0.91
-0.1,0.42,0.92,-7.07,-6.86,1.4
-0.08,0.41,0.92,-7.28,-5.32,1.54
-0.07,0.4,0.92,-6.65,-4.48,1.68
-0.07,0.4,0.92,-5.81,-3.78,1.82
-0.07,0.4,0.91,-5.11,-3.57,1.96
-0.08,0.4,0.91,-4.41,-3.64,2.17
-0.08,0.4,0.91,-4.2,-3.57,1.96
-0.08,0.4,0.91,-4.62,-3.99,1.47
-0.08,0.39,0.91,-5.46,-3.78,1.47
-0.09,0.4,0.92,-6.58,-4.27,1.61
-0.09,0.4,0.92,-7.84,-4.2,1.75
-0.08,0.39,0.94,-7.28,-3.85,1.96
-0.1,0.38,0.93,-7.07,-3.92,2.38
-0.1,0.37,0.94,-5.6,-3.64,2.24
-0.09,0.37,0.93,-3.57,-2.94,2.24
-0.07,0.37,0.93,-1.19,-2.38,1.75
-0.07,0.36,0.93,1.75,-1.82,1.96
-0.08,0.36,0.93,3.92,-1.19,1.89
-0.09,0.35,0.93,5.53,-0.42,2.17
-0.09,0.37,0.92,5.88,0.07,1.89
-0.09,0.38,0.92,4.83,-0.14,1.96
-0.1,0.39,0.92,3.08,-1.19,1.68
-0.1,0.39,0.93,0.49,-2.52,1.4
-0.1,0.39,0.93,-1.19,-3.57,1.19
-0.1,0.39,0.93,-2.31,-3.85,0.77
-0.09,0.38,0.93,-2.59,-3.99,0.49
-0.09,0.38,0.93,-2.45,-4.06,0.21
-0.09,0.39,0.92,-1.89,-4.06,0
-0.09,0.39,0.92,-1.4,-3.99,-0.28
-0.09,0.39,0.92,-1.33,-4.06,-0.35
-0.09,0.4,0.92,-1.54,-3.92,-0.42
-0.09,0.39,0.92,-2.03,-3.85,-0.35
-0.1,0.4,0.93,-2.73,-3.99,-0.14
-0.09,0.38,0.94,-1.82,-4.2,-0.14
-0.1,0.4,0.93,-3.01,-5.25,0.21
-0.09,0.38,0.94,-3.15,-5.46,0.07
-0.11,0.4,0.94,-2.45,-5.11,-0.07
-0.1,0.38,0.92,-3.29,-5.53,0.42
-0.08,0.36,0.93,-2.17,-4.69,0.98
-0.08,0.36,0.93,-0.14,-3.78,1.05
-0.07,0.37,0.93,1.4,-3.36,0.91
-0.08,0.37,0.92,2.31,-3.22,0.7
-0.08,0.37,0.92,2.38,-2.87,0.63
-0.08,0.37,0.92,1.96,-2.66,0.35
-0.09,0.38,0.92,0.98,-3.43,0.21
-0.09,0.38,0.93,0.42,-4.27,0.14
-0.08,0.38,0.93,-0.42,-4.48,0
-0.08,0.39,0.93,-0.91,-4.97,-0.14
-0.08,0.39,0.93,-1.61,-4.83,-0.35
-0.08,0.38,0.93,-1.4,-4.9,-0.21
-0.08,0.38,0.92,-0.91,-4.48,-0.21
-0.07,0.38,0.92,0,-4.27,-0.14
-0.08,0.38,0.92,0.77,-3.92,-0.21
-0.08,0.38,0.93,1.26,-3.64,-0.28
-0.08,0.38,0.93,1.61,-3.43,-0.28
-0.08,0.38,0.92,1.75,-3.43,-0.28
-0.09,0.39,0.92,1.47,-3.5,-0.28
-0.08,0.39,0.92,1.19,-3.57,-0.14
-0.08,0.39,0.92,0.98,-3.5,-0.07
-0.08,0.38,0.92,0.7,-3.78,0.07
-0.09,0.38,0.93,0.56,-3.5,0.14
-0.09,0.38,0.93,0.63,-3.5,0.14
-0.09,0.38,0.92,0.77,-3.43,0.14
-0.09,0.38,0.92,1.12,-3.36,0.21
-0.09,0.39,0.92,0.98,-3.22,0.21
-0.09,0.39,0.92,0.77,-3.43,0.14
-0.09,0.39,0.92,0.35,-3.29,0.14
-0.09,0.4,0.92,-0.21,-3.15,0.07
-0.09,0.4,0.92,-0.63,-3.71,0.21
-0.09,0.4,0.92,-1.26,-3.78,0.21
-0.09,0.4,0.92,-1.4,-4.2,0.35
-0.09,0.4,0.93,-1.4,-4.13,0.35
-0.08,0.4,0.92,-1.19,-4.13,0.49
-0.08,0.39,0.92,-0.98,-3.85,0.35
-0.08,0.39,0.93,-0.63,-3.57,0.49
-0.08,0.35,0.94,2.17,-4.27,0.49
-0.09,0.39,0.91,0.35,-4.41,0.42
-0.08,0.39,0.92,-0.28,-3.22,0.7
-0.08,0.39,0.92,0.07,-2.45,0.77
-0.07,0.39,0.92,0.14,-2.24,0.77
-0.07,0.39,0.92,-0.28,-2.59,0.84
-0.08,0.39,0.92,-0.84,-2.94,0.84
-0.08,0.38,0.92,-1.68,-2.87,0.77
-0.08,0.38,0.92,-2.38,-2.73,0.77
-0.08,0.38,0.92,-2.66,-2.94,0.7
-0.08,0.38,0.93,-2.87,-3.08,0.63
-0.08,0.34,0.95,-0.77,-3.64,0.7
-0.09,0.38,0.92,-2.03,-4.2,0.56
-0.06,0.49,0.95,-1.26,-2.87,0.14
-0.09,0.38,0.93,-1.4,-3.5,0.35
-0.08,0.38,0.94,-1.26,-3.43,0.28
-0.08,0.37,0.93,-0.7,-3.5,0.28
-0.08,0.38,0.92,-0.63,-3.99,0.42
-0.08,0.37,0.92,0.35,-2.73,0.35
-0.08,0.37,0.93,1.68,-2.17,0.28
-0.08,0.38,0.92,2.1,-2.03,0.14
-0.09,0.38,0.92,1.68,-2.17,0.07
-0.09,0.38,0.92,0.77,-2.66,-17.85
-0.09,0.38,0.92,-0.49,-2.87,0
-0.09,0.38,0.93,-1.68,-3.36,-0.07
-0.09,0.38,0.93,-2.45,-3.71,0.14
-0.09,0.38,0.93,-2.8,-3.99,0.21
-0.09,0.38,0.93,-2.45,-4.55,0.56
-0.09,0.37,0.94,-1.4,-4.69,0.56
-0.09,0.38,0.93,-1.61,-4.34,1.05
-0.07,0.38,0.93,-0.91,-3.99,1.26
-0.07,0.37,0.93,-0.63,-3.36,1.54
-0.08,0.37,0.93,0.63,-2.94,1.61
-0.07,0.38,0.93,1.68,-2.52,1.47
-0.06,0.37,0.92,2.66,-1.96,1.19
-0.07,0.38,0.92,3.29,-1.82,1.19
-0.08,0.38,0.92,3.15,-1.82,1.05
-0.08,0.38,0.92,2.59,-2.17,0.63
-0.08,0.39,0.92,1.68,-2.59,0.77
-0.09,0.39,0.92,0.77,-3.01,0.56
-0.08,0.39,0.92,-0.35,-3.15,0.63
-0.08,0.39,0.93,-0.98,-3.08,0.28
-0.08,0.39,0.93,-1.54,-3.08,0.21
-0.08,0.39,0.92,-1.4,-3.43,0.21
-0.08,0.39,0.93,-1.47,-3.43,0.21
-0.08,0.39,0.93,-1.54,-3.22,-0.07
-0.08,0.39,0.93,-1.33,-3.29,0
-0.08,0.38,0.93,-1.26,-3.15,-0.21
-0.08,0.38,0.93,-1.05,-3.01,-0.21
-0.08,0.38,0.93,-0.98,-2.94,-0.14
-0.08,0.38,0.92,-0.98,-3.01,-0.07
-0.08,0.38,0.92,-0.77,-3.01,0.14
-0.08,0.37,0.93,-0.7,-3.01,0.35
-0.09,0.38,0.93,-0.63,-2.8,0.49
-0.08,0.38,0.93,-0.7,-2.87,0.56
-0.08,0.38,0.93,-0.35,-2.87,0.56
-0.08,0.39,0.93,0.28,-3.08,0.84
-0.08,0.38,0.93,-0.14,-2.59,0.84
-0.09,0.38,0.93,0.35,-2.66,1.05
-0.09,0.38,0.93,0.84,-2.87,1.05
-0.09,0.38,0.94,0.77,-3.08,1.05
-0.09,0.38,0.93,0.42,-2.87,1.05
-0.08,0.38,0.93,0.42,-2.87,1.05
-0.08,0.38,0.93,0.42,-2.8,0.84
-0.08,0.38,0.93,0.28,-2.8,0.98
-0.08,0.38,0.93,0.21,-2.94,0.98
-0.08,0.38,0.92,0.07,-2.94,0.84
-0.09,0.4,0.92,-0.07,-1.96,0.7
-0.08,0.37,0.92,-0.63,-3.29,1.05
-0.08,0.37,0.93,-0.91,-3.29,0.98
-0.08,0.37,0.93,-0.77,-3.29,0.7
-0.08,0.38,0.93,-0.49,-3.29,0.7
-0.07,0.38,0.93,-0.35,-3.15,0.49
-0.07,0.37,0.93,0,-2.87,0.35
-0.07,0.37,0.93,0.35,-2.87,0.35
-0.08,0.38,0.92,0.56,-2.66,0.21
-0.08,0.38,0.93,0.7,-2.73,0.07
-0.08,0.38,0.93,0.91,-3.08,0.21
-0.08,0.38,0.93,0.7,-3.01,0
-0.08,0.38,0.93,0.56,-3.01,-0.07
-0.08,0.38,0.93,0.42,-2.73,-0.14
-0.08,0.38,0.93,0.35,-2.87,0
-0.08,0.38,0.92,0.14,-3.15,0.21
-0.08,0.38,0.92,-0.07,-2.94,0.42
-0.08,0.38,0.92,0,-3.01,0.42
-0.08,0.38,0.92,0,-3.01,0.7
-0.07,0.38,0.93,0.35,-2.73,0.7
-0.08,0.38,0.93,0.91,-2.31,0.98
-0.08,0.38,0.93,1.47,-2.24,1.05
-0.08,0.38,0.93,1.68,-1.89,1.12
-0.08,0.39,0.93,1.68,-1.96,1.05
-0.08,0.39,0.93,1.61,-1.96,1.05
-0.08,0.39,0.93,1.4,-2.03,0.98
-0.08,0.39,0.93,1.47,-2.52,0.84
-0.08,0.39,0.93,1.12,-2.52,0.91
-0.08,0.39,0.93,0.98,-2.8,0.7
-0.09,0.39,0.93,0.91,-2.73,0.84
-0.09,0.39,0.93,0.98,-2.66,0.63
-0.09,0.39,0.93,1.12,-2.66,0.49
-0.09,0.39,0.93,1.05,-2.59,0.42
-0.09,0.39,0.93,0.91,-2.59,0.49
-0.08,0.38,0.93,0.84,-2.94,0.28
-0.09,0.39,0.93,0.42,-3.15,0.28
-0.08,0.39,0.92,-0.35,-3.57,0.35
-0.08,0.37,0.94,0.63,-3.01,0.7
-0.08,0.27,0.92,1.05,-2.38,0.77
-0.08,0.38,0.92,0.7,-2.66,0.63
-0.08,0.39,0.92,0,-2.94,0.7
-0.08,0.39,0.92,-0.07,-2.87,0.63
-0.08,0.39,0.92,-0.21,-3.08,0.56
-0.07,0.38,0.93,-0.21,-3.22,0.7
-0.08,0.25,0.93,-0.14,-3.29,0.91
-0.08,0.37,0.94,1.89,-2.8,0.56
-0.06,0.37,0.94,4.27,-2.17,0
-0.03,0.37,0.93,7.07,-0.98,-0.42
-0.07,0.39,0.91,8.12,-0.77,-0.49
-0.1,0.4,0.92,7.21,-0.91,-1.19
-0.1,0.39,0.93,6.02,-0.91,-0.56
-0.09,0.39,0.92,2.73,-1.68,-0.28
-0.09,0.39,0.92,0.14,-2.8,0.07
-0.09,0.39,0.92,-1.82,-3.64,0.49
-0.09,0.4,0.92,-3.64,-4.48,0.98
-0.1,0.37,0.93,-4.9,-4.69,1.61
-0.08,0.37,0.94,-3.99,-3.57,1.68
-0.08,0.38,0.93,-2.59,-3.22,1.61
-0.08,0.39,0.92,-0.98,-3.01,1.19
-0.08,0.38,0.92,0.63,-2.59,0.84
-0.07,0.38,0.92,2.59,-2.31,0.49
-0.08,0.38,0.92,3.99,-1.82,0.28
-0.08,0.39,0.92,4.69,-2.1,0
-0.09,0.4,0.93,4.2,-2.1,-0.14
-0.09,0.4,0.93,2.87,-2.31,-0.42
-0.09,0.4,0.93,1.33,-3.01,-0.35
-0.09,0.39,0.93,0,-3.78,-0.49
-0.08,0.39,0.92,-0.84,-4.27,-0.7
-0.07,0.39,0.92,-1.12,-4.48,-0.63
-0.07,0.39,0.92,-1.12,-4.69,-0.7
-0.08,0.39,0.91,-1.12,-4.69,-0.84
-0.08,0.4,0.91,-1.54,-4.69,-0.77
-0.08,0.39,0.92,-2.1,-4.34,0.21
-0.09,0.4,0.92,-2.31,-3.5,0.21
-0.08,0.39,0.92,-2.8,-3.43,0.91
-0.08,0.4,0.92,-4.41,-3.22,1.61
-0.09,0.39,0.92,-4.13,-3.22,1.61
-0.08,0.39,0.93,-2.87,-2.94,1.4
-0.08,0.38,0.93,-1.47,-2.73,1.33
-0.08,0.37,0.93,-0.07,-2.03,1.26
-0.08,0.37,0.93,1.47,-1.54,1.05
-0.08,0.38,0.93,3.5,-1.05,0.91
-0.08,0.38,0.93,5.11,-0.63,0.63
-0.08,0.38,0.94,6.72,-0.14,0.35
-0.08,0.39,0.94,7.84,-0.21,0
-0.09,0.39,0.94,7.91,-0.35,-0.35
-0.1,0.39,0.93,7.07,-0.91,-0.07
-0.09,0.4,0.93,6.16,-1.26,-0.42
-0.1,0.4,0.92,4.27,-2.73,-0.42
-0.09,0.4,0.92,2.31,-3.5,-0.7
-0.09,0.4,0.91,0.35,-4.34,-0.56
-0.08,0.39,0.91,-0.42,-4.27,-0.42
-0.07,0.39,0.91,-0.07,-3.99,-0.35
-0.07,0.39,0.92,0.77,-3.15,-0.21
-0.07,0.39,0.92,1.89,-2.52,-0.21
-0.07,0.39,0.92,2.52,-1.89,0
-0.07,0.4,0.92,2.87,-1.19,-0.28
-0.08,0.41,0.92,2.1,-1.61,-0.42
-0.1,0.41,0.92,0.49,-2.52,-0.21
-0.1,0.41,0.92,-1.61,-3.22,0.21
-0.1,0.41,0.92,-3.36,-4.2,0.63
-0.09,0.4,0.92,-5.11,-4.62,0.84
-0.09,0.4,0.92,-5.6,-4.83,1.05
-0.08,0.39,0.92,-5.53,-4.48,0.98
-0.08,0.38,0.92,-4.83,-3.99,0.91
-0.07,0.38,0.92,-3.15,-3.29,0.49
-0.07,0.37,0.92,-1.4,-2.8,0.14
-0.07,0.38,0.92,0.28,-2.45,-0.07
-0.08,0.38,0.93,1.54,-2.17,-0.21
-0.08,0.38,0.93,2.52,-1.89,-0.42
-0.09,0.4,0.92,-0.28,-3.22,0.07
-0.09,0.39,0.92,-0.14,-2.94,0.42
-0.09,0.39,0.92,0,-2.94,0.21
-0.09,0.39,0.92,0,-2.94,0.42
-0.09,0.39,0.92,0.07,-2.94,0.56
-0.09,0.39,0.92,0.07,-2.94,0.42
-0.09,0.39,0.92,-0.07,-2.8,0.56
-0.08,0.39,0.92,-0.14,-2.73,0.56
-0.08,0.39,0.92,0,-3.01,0.49
-0.08,0.39,0.92,0.14,-2.94,0.49
-0.08,0.39,0.92,0.14,-2.87,0.28
-0.08,0.39,0.92,0.35,-2.94,0.35
-0.08,0.39,0.92,0.42,-2.8,0.35
-0.09,0.39,0.92,0.63,-2.73,0.35
-0.08,0.39,0.92,0.7,-2.66,0.35
-0.09,0.4,0.92,0.77,-2.8,0.42
-0.09,0.4,0.92,0.7,-2.8,0.35
-0.09,0.4,0.92,0.56,-2.87,0.35
-0.09,0.4,0.92,0.63,-2.94,0.49
-0.09,0.4,0.92,0.35,-2.87,0.49
-0.09,0.4,0.92,0.07,-3.01,0.56
-0.09,0.4,0.92,-0.21,-3.15,0.56
-0.09,0.39,0.92,-0.35,-3.22,0.56
-0.09,0.39,0.92,-0.56,-3.22,0.42
-0.09,0.39,0.92,-0.42,-3.22,0.49
-0.08,0.39,0.92,-0.35,-3.29,0.35
-0.08,0.39,0.92,-0.21,-3.22,0.49
-0.08,0.39,0.92,-0.07,-3.01,0.49
-0.08,0.4,0.92,0.07,-2.87,0.28
-0.08,0.39,0.92,0.21,-2.8,0.35
-0.08,0.39,0.92,0.35,-2.87,0.28
-0.08,0.39,0.92,0.42,-2.59,0.21
-0.08,0.4,0.92,0.35,-2.87,0.35
-0.08,0.4,0.92,0.21,-3.01,0.21
-0.08,0.4,0.92,-0.07,-3.01,0.28
-0.09,0.4,0.92,0,-3.29,0.21
-0.08,0.4,0.92,-0.21,-3.01,0.21
-0.09,0.39,0.92,-0.14,-2.8,0.14
-0.09,0.4,0.92,-0.14,-2.8,0.14
-0.09,0.39,0.92,-0.07,-2.94,0.21
-0.09,0.4,0.92,0.14,-3.08,0.21
-0.09,0.39,0.92,0.07,-2.73,0.21
-0.09,0.39,0.92,0.28,-2.59,0.35
-0.08,0.39,0.92,0.49,-2.52,0.42
-0.08,0.39,0.92,0.56,-2.31,0.63
-0.08,0.39,0.92,0.84,-2.52,0.84
-0.08,0.39,0.92,0.91,-2.45,1.05
-0.08,0.39,0.92,0.98,-2.24,1.05
-0.08,0.39,0.92,0.91,-2.45,0.98
-0.08,0.39,0.92,0.7,-2.17,0.7
-0.09,0.39,0.92,0.84,-2.59,0.7
-0.09,0.39,0.92,0.91,-2.52,0.7
-0.08,0.39,0.92,0.91,-2.66,0.56
-0.08,0.39,0.92,0.84,-2.94,0.56
-0.09,0.39,0.92,0.56,-3.01,0.21
-0.09,0.39,0.92,0.21,-2.94,-0.07
-0.09,0.4,0.92,0.07,-3.36,-0.14
-0.09,0.4,0.92,0,-3.36,-0.14
-0.09,0.4,0.92,-0.07,-3.43,-0.14
-0.09,0.4,0.92,-0.28,-3.29,0
-0.09,0.4,0.92,-0.49,-3.43,-0.14
-0.08,0.4,0.92,-0.49,-3.29,0.21
-0.08,0.4,0.92,-0.28,-3.29,0.28
-0.08,0.39,0.92,0,-3.08,0.49
-0.08,0.39,0.92,0.14,-2.94,0.77
-0.08,0.4,0.92,0.42,-2.73,1.12
-0.08,0.4,0.92,0.49,-2.31,0.98
-0.08,0.4,0.92,0.63,-2.38,0.84
-0.09,0.4,0.92,0.56,-2.38,0.77
-0.09,0.4,0.92,0.49,-2.52,0.63
-0.09,0.4,0.92,0.56,-2.8,0.7
-0.09,0.4,0.92,0.42,-3.08,0.56
-0.09,0.4,0.92,0.28,-2.94,0.28
-0.09,0.4,0.92,0.07,-3.01,0.28
-0.09,0.4,0.92,-0.07,-3.15,0.21
-0.08,0.39,0.92,-0.14,-3.08,0.42
-0.09,0.4,0.92,-0.21,-3.01,0.28
-0.09,0.39,0.92,0,-3.22,0.42
-0.09,0.39,0.92,0.14,-2.94,0.49
-0.08,0.39,0.92,0.28,-2.87,0.63
-0.09,0.39,0.92,0.42,-3.15,0.84
-0.08,0.39,0.92,0.28,-2.73,0.56
-0.08,0.39,0.92,0.28,-2.8,0.84
-0.08,0.39,0.92,0.42,-2.87,0.77
-0.08,0.39,0.92,0.42,-2.8,0.77
-0.08,0.4,0.92,0.49,-2.73,0.7
-0.09,0.39,0.92,0.63,-2.87,0.42
-0.09,0.39,0.92,0.35,-3.29,0.49
-0.09,0.4,0.92,0,-3.15,0.49
-0.07,0.39,0.92,0.35,-3.01,0.42
-0.08,0.4,0.92,0.77,-2.8,0.28
-0.08,0.4,0.92,0.63,-2.8,0.42
-0.08,0.4,0.92,0.42,-2.87,0.21
-0.09,0.4,0.92,0.28,-2.94,0.28
-0.09,0.4,0.92,0.21,-2.8,0.07
-0.08,0.4,0.92,0.07,-2.66,0
-0.09,0.4,0.92,0,-2.87,0
-0.09,0.4,0.92,0.07,-3.15,0.07
-0.09,0.4,0.92,0.07,-3.22,0.14
-0.09,0.4,0.92,-0.21,-2.87,0.21
-0.09,0.4,0.92,-0.14,-3.22,0.42
-0.09,0.4,0.92,-0.14,-2.87,0.28
-0.09,0.4,0.92,-0.14,-2.8,0.28
-0.09,0.4,0.92,0.07,-3.08,0.35
-0.09,0.4,0.92,0.07,-3.01,0.35
-0.09,0.4,0.92,0.07,-3.01,0.56
-0.08,0.4,0.92,0,-2.8,0.49
-0.08,0.4,0.92,0,-2.8,0.42
-0.08,0.4,0.92,-0.21,-3.15,0.49
-0.08,0.4,0.92,-0.28,-2.94,0.42
-0.08,0.4,0.92,-0.07,-2.8,0.35
-0.08,0.4,0.92,-0.14,-3.08,0.28
-0.08,0.4,0.92,-0.21,-3.01,0.49
-0.09,0.4,0.92,-0.35,-2.87,0.49
-0.09,0.4,0.92,-0.42,-3.08,0.49
-0.08,0.39,0.92,-0.42,-3.15,0.42
-0.08,0.4,0.92,-0.42,-3.08,0.49
-0.08,0.39,0.92,-0.28,-2.59,0.28
-0.08,0.39,0.92,-0.21,-2.8,0.35
-0.09,0.39,0.92,-0.21,-2.73,0.21
-0.09,0.39,0.92,-0.14,-2.94,0.21
-0.08,0.39,0.92,-0.14,-2.73,0.07
-0.08,0.4,0.92,-0.07,-3.08,0.14
-0.08,0.39,0.92,0,-3.08,0.28
-0.08,0.39,0.92,0,-2.87,0
-0.09,0.39,0.92,0.07,-2.94,0.14
-0.08,0.39,0.92,0.07,-3.01,0.21
-0.08,0.39,0.92,0.21,-3.01,0.35
-0.08,0.4,0.92,0.21,-2.94,0.49
-0.08,0.39,0.92,0.42,-3.29,0.42
-0.09,0.39,0.92,0.28,-3.01,0.28
-0.08,0.4,0.92,0.21,-3.22,0.35
-0.09,0.4,0.92,0.21,-3.08,0.28
-0.08,0.4,0.92,0.21,-2.94,0.28
-0.08,0.4,0.92,0.21,-2.87,0.56
-0.08,0.4,0.92,0.14,-2.94,0.35
-0.09,0.4,0.92,0.14,-2.8,0.49
-0.08,0.4,0.92,0.14,-2.94,0.49
-0.08,0.4,0.92,0.07,-2.59,0.35
-0.08,0.4,0.92,0.07,-2.94,0.35
-0.08,0.4,0.92,0.07,-2.87,0.42
-0.08,0.4,0.92,0,-2.87,0.35
-0.09,0.4,0.92,0,-2.87,0.21
-0.08,0.39,0.92,0.07,-2.87,0.35
-0.09,0.4,0.92,-0.14,-2.87,0.35
-0.09,0.4,0.92,-0.14,-2.94,0.35
-0.09,0.4,0.92,-0.07,-3.15,0.42
-0.09,0.4,0.92,-0.21,-2.87,0.35
-0.09,0.39,0.92,-0.28,-3.01,0.42
-0.08,0.4,0.92,-0.21,-3.01,0.49
-0.09,0.39,0.92,-0.21,-3.01,0.49
-0.08,0.39,0.92,-0.14,-2.8,0.42
-0.09,0.39,0.92,0.07,-2.94,0.35
-0.08,0.4,0.92,0.14,-2.87,0.49
-0.09,0.4,0.92,0.14,-2.73,0.28
-0.08,0.39,0.92,0.07,-2.87,0.28
-0.09,0.39,0.92,0.14,-2.87,0.42
-0.09,0.39,0.92,0.07,-2.87,0.49
-0.09,0.39,0.92,0.21,-3.08,0.49
-0.09,0.39,0.92,0.07,-2.8,0.49
-0.08,0.39,0.92,0.14,-2.87,0.49
-0.08,0.4,0.92,0.21,-2.66,0.35
-0.08,0.4,0.92,0.21,-2.66,0.07
-0.08,0.4,0.92,0.14,-2.66,0.14
-0.08,0.4,0.92,0.14,-2.87,0.28
-0.08,0.4,0.92,-0.07,-2.87,0.28
-0.08,0.4,0.92,-0.21,-2.8,-0.07
-0.08,0.4,0.92,-0.07,-3.01,0.07
-0.08,0.39,0.92,0.07,-3.08,0.14
-0.08,0.39,0.92,-0.07,-2.94,0.14
-0.08,0.4,0.92,0.07,-2.73,0.21
-0.09,0.39,0.92,0.21,-2.59,0.28
-0.09,0.39,0.92,0.28,-2.8,0.21
-0.09,0.4,0.92,0.35,-2.94,0.21
-0.09,0.39,0.92,0.28,-2.73,0.21
-0.09,0.4,0.92,0.21,-3.08,0.49
-0.09,0.4,0.92,-0.14,-2.94,0.49
-0.09,0.4,0.92,0,-2.94,0.49
-0.09,0.4,0.92,0.07,-3.01,0.42
-0.09,0.4,0.92,0.14,-3.01,0.56
-0.09,0.4,0.92,0.28,-2.94,0.49
-0.09,0.4,0.92,0.35,-2.73,0.42
-0.08,0.4,0.92,0.42,-2.8,0.49
-0.09,0.4,0.92,0.42,-2.8,0.28
-0.08,0.4,0.92,0.28,-2.66,0.35
-0.08,0.4,0.92,0.14,-2.8,0.42
-0.09,0.4,0.92,-0.14,-2.87,0.28
-0.08,0.4,0.92,-0.14,-2.94,0.35
-0.08,0.4,0.92,-0.07,-2.66,0.21
-0.08,0.4,0.92,-0.14,-2.87,0.42
-0.08,0.4,0.92,-0.21,-2.94,0.35
-0.08,0.39,0.92,-0.14,-2.73,0.42
-0.08,0.39,0.92,0.07,-2.8,0.28
-0.09,0.39,0.92,0,-2.87,0.28
-0.08,0.39,0.92,0.21,-3.01,0.35
-0.08,0.41,0.92,-0.14,-3.08,0.28
-0.09,0.39,0.92,-0.07,-3.15,0.42
-0.09,0.39,0.93,-0.35,-2.94,0.77
-0.07,0.4,0.92,-0.14,-2.94,0.28
-0.08,0.39,0.92,0.07,-2.94,0.35
-0.09,0.4,0.92,0.35,-3.15,0.42
-0.08,0.4,0.92,0.07,-3.01,0.28
-0.08,0.39,0.92,0.14,-2.94,0.28
-0.09,0.4,0.92,0.42,-3.15,0.42
-0.09,0.4,0.92,0.42,-2.8,0.49
-0.08,0.4,0.92,0.21,-2.73,0.49
-0.09,0.4,0.92,0.14,-3.01,0.42
-0.08,0.4,0.92,0,-3.08,0.42
-0.09,0.4,0.92,-0.14,-2.87,0.49
-0.08,0.4,0.92,-0.14,-3.08,0.42
-0.08,0.4,0.92,-0.14,-2.87,0.42
-0.08,0.4,0.92,0.21,-2.87,0.35
-0.08,0.4,0.92,0.14,-2.8,0.35
-0.09,0.4,0.92,0.14,-2.8,0.35
-0.08,0.4,0.92,0.21,-2.8,0.14
-0.09,0.4,0.92,0,-3.01,0.35
-0.09,0.4,0.92,-0.21,-3.01,0.35
-0.09,0.4,0.92,-0.14,-3.01,0.49
-0.08,0.39,0.92,-0.28,-3.08,0.42
-0.08,0.4,0.92,-0.07,-3.08,0.42
-0.08,0.4,0.92,0,-2.73,0.42
-0.08,0.4,0.92,0.07,-2.8,0.49
-0.09,0.4,0.92,0.28,-2.8,0.35
-0.09,0.4,0.92,0.28,-2.87,0.56
-0.09,0.4,0.92,0.14,-2.94,0.35
-0.09,0.4,0.92,0.07,-2.94,0.28
-0.09,0.39,0.92,0.07,-2.87,0.35
-0.08,0.39,0.92,0,-2.94,0.49
-0.08,0.39,0.92,0.07,-2.87,0.42
-0.09,0.39,0.92,0.07,-3.01,0.49
-0.09,0.4,0.92,0.14,-3.01,0.42
-0.08,0.4,0.92,0.14,-2.8,0.35
-0.09,0.4,0.92,0,-3.08,0.42
-0.08,0.4,0.92,-0.21,-2.94,0.42
-0.08,0.4,0.92,-0.07,-2.94,0.35
-0.09,0.4,0.92,-0.14,-2.8,0.35
-0.08,0.4,0.92,0.14,-2.8,0.35
-0.09,0.4,0.92,0.21,-2.73,0.28
-0.09,0.4,0.92,0.28,-2.8,0.35
-0.08,0.4,0.92,0.28,-3.08,0.35
-0.09,0.39,0.92,0.28,-2.8,0.42
-0.09,0.4,0.92,0.07,-2.8,0.35
-0.09,0.4,0.92,-0.07,-2.94,0.42
-0.09,0.4,0.92,-0.14,-2.87,0.49
-0.09,0.4,0.92,-0.28,-3.01,0.42
-0.09,0.4,0.92,-0.21,-2.8,0.28
-0.08,0.39,0.92,-0.07,-2.94,0.42
-0.09,0.39,0.92,0.07,-3.01,0.35
-0.09,0.39,0.92,0.21,-2.87,0.42
-0.08,0.4,0.92,0.21,-2.94,0.49
-0.08,0.4,0.92,0.14,-2.66,0.42
-0.09,0.4,0.92,0.35,-2.94,0.35
-0.08,0.4,0.92,0.28,-3.08,0.49
-0.08,0.4,0.92,0.21,-2.94,0.35
-0.09,0.4,0.92,0.14,-3.22,0.56
-0.09,0.4,0.92,-0.07,-3.08,0.49
-0.09,0.4,0.92,-0.07,-3.15,0.49
-0.09,0.4,0.92,-0.14,-2.87,0.42
-0.08,0.4,0.92,-0.28,-2.8,0.49
-0.08,0.4,0.92,-0.21,-3.01,0.35
-0.08,0.4,0.92,-0.14,-3.08,0.35
-0.08,0.39,0.92,0,-3.01,0.42
-0.08,0.39,0.92,0.07,-3.15,0.28
-0.09,0.4,0.92,0.14,-2.87,0.35
-0.08,0.4,0.92,0.07,-2.94,0.49
-0.09,0.4,0.92,0.14,-2.94,0.42
-0.09,0.39,0.92,0.07,-2.87,0.42
-0.08,0.4,0.92,0.07,-2.87,0.49
-0.09,0.39,0.92,0.07,-2.87,0.42
-0.08,0.4,0.92,0.14,-3.08,0.49
-0.09,0.39,0.92,0.14,-2.94,0.35
-0.09,0.4,0.92,0.14,-2.8,0.35
-0.09,0.4,0.92,0.14,-2.87,0.28
-0.09,0.4,0.92,0,-2.66,0.28
-0.09,0.4,0.92,0.21,-3.01,0.35
-0.09,0.4,0.92,0,-2.94,0.35
-0.09,0.4,0.92,0,-2.87,0.35
-0.08,0.4,0.92,0,-2.87,0.42
-0.08,0.4,0.92,-0.07,-3.01,0.28
-0.08,0.4,0.92,0,-3.15,0.42
-0.08,0.4,0.92,-0.07,-3.01,0.35
-0.08,0.4,0.92,-0.14,-3.01,0.28
-0.08,0.4,0.92,-0.07,-2.87,0.28
-0.08,0.4,0.92,-0.07,-2.73,0.21
-0.08,0.4,0.92,0.07,-2.87,0.35
-0.09,0.39,0.92,0.21,-3.01,0.49
-0.09,0.4,0.92,0.07,-3.01,0.49
-0.08,0.4,0.92,0.07,-3.01,0.63
-0.08,0.4,0.92,0.07,-3.22,0.42
-0.09,0.4,0.92,-0.07,-2.8,0.28
-0.08,0.39,0.92,-0.07,-3.01,0.42
-0.08,0.39,0.92,-0.07,-3.08,0.49
-0.08,0.4,0.92,-0.07,-2.87,0.49
-0.08,0.39,0.92,0,-3.08,0.35
-0.08,0.39,0.92,0.21,-3.08,0.35
-0.08,0.4,0.92,0.28,-3.22,0.49
-0.08,0.4,0.92,0.14,-3.15,0.49
-0.08,0.4,0.92,0.14,-3.01,0.42
-0.09,0.4,0.92,0.07,-2.73,0.28
-0.09,0.4,0.92,0.21,-2.94,0.35
-0.08,0.4,0.92,0.21,-2.66,0.21
-0.08,0.39,0.92,0.28,-2.8,0.28
-0.09,0.4,0.92,0.28,-2.87,0.49
-0.09,0.4,0.92,0.28,-3.01,0.35
-0.08,0.4,0.92,0.14,-2.94,0.35
-0.08,0.4,0.92,-0.07,-2.94,0.49
-0.08,0.4,0.92,-0.21,-3.15,0.49
-0.08,0.4,0.92,-0.28,-3.36,0.42
-0.08,0.4,0.92,-0.14,-3.08,0.21
-0.08,0.4,0.92,0,-3.08,0.28
-0.09,0.4,0.92,0.14,-2.87,0.35
-0.09,0.4,0.92,0.14,-2.8,0.28
-0.08,0.39,0.92,0,-2.66,0.21
-0.09,0.39,0.92,0.28,-2.8,0.35
-0.08,0.4,0.92,0.07,-2.94,0.35
-0.09,0.4,0.92,-0.07,-3.01,0.56
-0.09,0.39,0.92,0,-3.15,0.42
-0.09,0.39,0.92,-0.07,-3.08,0.49
-0.09,0.39,0.92,0,-3.01,0.63
-0.08,0.4,0.92,0.21,-3.01,0.49
-0.08,0.39,0.92,0.14,-2.94,0.35
-0.08,0.39,0.92,0.28,-3.08,0.28
-0.08,0.39,0.92,0.28,-2.94,0.28
-0.08,0.4,0.92,0.42,-2.94,0.49
-0.08,0.4,0.92,0.21,-3.01,0.35
-0.09,0.4,0.92,0,-2.87,0.35
-0.08,0.4,0.92,0,-3.08,0.35
-0.08,0.4,0.92,-0.07,-3.15,0.28
-0.08,0.4,0.92,0,-2.94,0.28
-0.08,0.39,0.92,0,-2.94,0.42
-0.08,0.39,0.92,0.07,-2.87,0.35
-0.08,0.4,0.92,0.14,-2.94,0.42
-0.08,0.4,0.92,0.14,-2.66,0.49
-0.08,0.4,0.92,0.28,-2.94,0.49
-0.08,0.4,0.92,0.07,-2.87,0.35
-0.08,0.4,0.92,0,-2.73,0.49
-0.08,0.4,0.92,-0.07,-2.73,0.42
-0.09,0.4,0.92,-0.14,-2.94,0.42
-0.09,0.4,0.92,0,-3.01,0.35
-0.09,0.39,0.92,0,-2.87,0.35
-0.09,0.39,0.92,0.07,-3.15,0.28
-0.09,0.4,0.92,0.07,-3.01,0.35
-0.08,0.4,0.92,0,-2.87,0.28
-0.09,0.4,0.92,-0.07,-3.08,0.49
-0.08,0.4,0.92,-0.14,-3.01,0.56
-0.08,0.39,0.92,-0.07,-3.15,0.42
-0.09,0.39,0.92,0,-3.01,0.42
-0.09,0.4,0.92,0.07,-3.08,0.42
-0.08,0.4,0.92,0.14,-3.01,0.63
-0.08,0.4,0.92,0.21,-2.94,0.49
-0.08,0.4,0.92,0.28,-2.87,0.49
-0.08,0.4,0.92,0.21,-2.52,0.42
-0.08,0.39,0.92,0.07,-2.8,0.42
-0.08,0.4,0.92,0.14,-2.8,0.42
-0.08,0.4,0.92,0,-3.01,0.42
-0.08,0.39,0.92,0,-2.94,0.42
-0.09,0.4,0.92,-0.14,-2.94,0.42
-0.09,0.4,0.92,-0.28,-3.01,0.21
-0.09,0.4,0.92,-0.21,-3.01,0.49
-0.09,0.4,0.92,-0.14,-2.94,0.28
-0.08,0.39,0.92,0.07,-3.08,0.35
-0.09,0.4,0.92,0.07,-2.94,0.49
-0.08,0.39,0.92,0.28,-2.87,0.49
-0.08,0.39,0.92,0.28,-2.8,0.35
-0.08,0.4,0.92,0.28,-3.01,0.42
-0.08,0.39,0.92,0.14,-2.8,0.42
-0.08,0.4,0.92,0.21,-2.8,0.35
-0.09,0.39,0.92,0.21,-3.01,0.42
-0.09,0.4,0.92,0.14,-3.01,0.35
-0.09,0.4,0.92,0.07,-3.01,0.35
-0.08,0.39,0.92,-0.07,-2.66,0.35
-0.09,0.4,0.92,0.07,-2.8,0.35
-0.08,0.4,0.92,0.14,-2.87,0.28
-0.08,0.4,0.92,0.07,-2.94,0.35
-0.08,0.4,0.92,0.07,-2.87,0.28
-0.08,0.4,0.92,0.07,-2.94,0.35
-0.08,0.4,0.92,0.07,-2.8,0.35
-0.09,0.4,0.92,0.07,-2.87,0.28
-0.09,0.4,0.92,-0.14,-2.73,0.49
-0.09,0.4,0.92,-0.14,-2.94,0.49
-0.09,0.4,0.92,0,-2.94,0.35
-0.09,0.39,0.93,0,-2.87,0.42
-0.09,0.39,0.92,0.14,-3.08,0.49
-0.08,0.39,0.92,0.07,-2.94,0.35
-0.09,0.4,0.92,0.21,-2.94,0.35
-0.09,0.4,0.92,0.28,-3.01,0.42
-0.09,0.4,0.92,0.14,-2.87,0.35
-0.09,0.4,0.92,0.07,-2.66,0.28
-0.08,0.4,0.92,-0.07,-2.87,0.35
-0.08,0.4,0.92,0,-3.08,0.28
-0.08,0.4,0.92,-0.14,-2.94,0.42
-0.08,0.4,0.92,-0.07,-2.8,0.28
-0.08,0.39,0.92,-0.07,-2.87,0.35
-0.08,0.39,0.92,0,-3.01,0.49
-0.08,0.4,0.92,0,-2.73,0.49
-0.09,0.39,0.92,0,-3.01,0.42
-0.09,0.39,0.92,0.14,-2.8,0.42
-0.08,0.39,0.92,0.14,-2.87,0.42
-0.09,0.39,0.92,0.21,-3.08,0.35
-0.09,0.39,0.92,0.07,-2.87,0.35
-0.09,0.39,0.92,0.14,-2.94,0.42
-0.09,0.4,0.92,0.07,-3.01,0.42
-0.09,0.4,0.92,0.28,-2.73,0.21
-0.09,0.39,0.92,0.21,-2.94,0.42
-0.09,0.39,0.92,0.28,-2.94,0.28
-0.09,0.39,0.92,0.21,-2.94,0.35
-0.08,0.39,0.92,0.28,-2.73,0.42
-0.08,0.4,0.92,0.28,-2.87,0.35
-0.08,0.4,0.92,0.21,-2.94,0.35
-0.08,0.4,0.92,0.21,-3.01,0.49
-0.09,0.4,0.92,0.21,-2.94,0.28
-0.08,0.4,0.92,0.14,-2.87,0.35
-0.08,0.4,0.92,0.07,-2.8,0.42
-0.08,0.4,0.92,0.07,-3.08,0.35
-0.08,0.4,0.92,0,-2.94,0.28
-0.08,0.4,0.92,0,-2.94,0.42
-0.08,0.4,0.92,0,-2.94,0.28
-0.08,0.4,0.92,0,-2.8,0.21
-0.08,0.4,0.92,0,-2.8,0.28
-0.08,0.4,0.92,0,-2.8,0.28
-0.09,0.4,0.92,0.07,-3.15,0.28
-0.09,0.39,0.92,0,-2.94,0.42
-0.09,0.4,0.92,-0.14,-2.73,0.35
-0.09,0.4,0.92,-0.07,-2.87,0.28
-0.09,0.4,0.92,0,-2.87,0.35
-0.08,0.4,0.92,0,-2.73,0.35
-0.08,0.39,0.92,0.14,-2.94,0.42
-0.09,0.39,0.92,0.07,-2.66,0.35
-0.09,0.39,0.92,0.21,-2.8,0.42
-0.09,0.4,0.92,0.21,-2.87,0.28
-0.09,0.39,0.92,0.14,-2.87,0.35
-0.09,0.39,0.92,0.14,-3.01,0.21
-0.09,0.4,0.92,0,-3.08,0.35
-0.08,0.39,0.92,-0.14,-3.01,0.21
-0.08,0.4,0.92,0,-3.15,0.35
-0.08,0.4,0.92,0,-3.15,0.42
-0.08,0.4,0.92,0,-3.15,0.49
-0.09,0.4,0.92,0.07,-3.01,0.35
-0.08,0.4,0.92,0.21,-3.01,0.28
-0.08,0.4,0.92,0.28,-2.94,0.42
-0.08,0.39,0.92,0.42,-2.94,0.35
-0.08,0.39,0.92,0.35,-2.8,0.42
-0.09,0.4,0.92,0.42,-2.8,0.49
-0.08,0.4,0.92,0.42,-2.87,0.42
-0.09,0.4,0.92,0.21,-2.59,0.35
-0.08,0.4,0.92,0,-2.8,0.49
-0.08,0.4,0.92,-0.07,-3.01,0.35
-0.08,0.4,0.92,-0.07,-3.01,0.35
-0.08,0.4,0.92,-0.14,-2.8,0.42
-0.08,0.4,0.92,0,-3.08,0.21
-0.09,0.39,0.92,0,-2.87,0.28
-0.08,0.39,0.92,0.07,-2.8,0.28
-0.08,0.39,0.92,0.21,-3.08,0.42
-0.09,0.4,0.92,0.14,-2.8,0.42
-0.09,0.4,0.92,0.21,-2.87,0.28
-0.09,0.4,0.92,0.35,-2.87,0.49
-0.09,0.4,0.92,0.14,-2.73,0.42
-0.09,0.4,0.92,0.21,-2.94,0.28
-0.09,0.4,0.92,0.07,-2.94,0.35
-0.09,0.4,0.92,0,-2.87,0.21
-0.09,0.4,0.92,0.07,-3.08,0.21
-0.09,0.39,0.92,-0.14,-2.94,0.07
-0.08,0.39,0.92,0,-3.01,0.14
-0.09,0.4,0.92,-0.21,-3.01,0.21
-0.08,0.4,0.92,0,-3.22,0.21
-0.08,0.4,0.92,0,-3.15,0.28
-0.08,0.4,0.92,-0.14,-2.87,0.42
-0.08,0.4,0.92,0.14,-3.01,0.56
-0.08,0.4,0.92,0.21,-2.8,0.63
-0.08,0.4,0.92,0.28,-2.45,0.49
-0.08,0.4,0.92,0.35,-2.59,0.42
-0.08,0.4,0.92,0.28,-2.66,0.49
-0.08,0.4,0.92,0.21,-2.87,0.35
-0.08,0.4,0.92,0.07,-2.8,0.42
-0.08,0.4,0.92,0.07,-2.94,0.28
-0.08,0.4,0.92,0.07,-2.94,0.28
-0.09,0.39,0.92,0,-2.87,0.14
-0.08,0.39,0.92,0.14,-3.29,0.21
-0.08,0.39,0.92,-0.14,-2.87,0.35
-0.09,0.39,0.92,-0.07,-2.8,0.28
-0.09,0.4,0.92,0.07,-2.87,0.28
-0.09,0.4,0.92,0.07,-3.01,0.35
-0.09,0.4,0.92,0.21,-2.87,0.35
-0.09,0.4,0.92,0.28,-2.8,0.42
-0.09,0.4,0.92,0.21,-2.87,0.35
-0.09,0.39,0.92,0.28,-2.94,0.49
-0.09,0.4,0.92,0.28,-2.87,0.42
-0.09,0.4,0.92,0.35,-2.73,0.56
-0.09,0.4,0.92,0.28,-2.87,0.49
-0.09,0.4,0.92,0.35,-2.94,0.42
-0.08,0.4,0.92,0.14,-2.8,0.35
-0.09,0.4,0.92,0.14,-2.94,0.28
-0.08,0.4,0.92,0.14,-3.22,0.28
-0.08,0.4,0.92,0.21,-3.08,0.35
-0.09,0.4,0.92,0.07,-3.01,0.28
-0.09,0.4,0.92,0.07,-3.01,0.42
-0.08,0.4,0.92,0,-3.08,0.35
-0.08,0.4,0.92,0.14,-3.15,0.35
-0.08,0.4,0.92,0,-2.8,0.35
-0.08,0.4,0.92,0.21,-2.87,0.49
-0.08,0.4,0.92,0.07,-2.66,0.42
-0.09,0.4,0.92,0.21,-2.87,0.56
-0.08,0.4,0.92,0.28,-2.94,0.56
-0.09,0.4,0.92,0.28,-2.73,0.49
-0.08,0.4,0.92,0.21,-2.8,0.49
-0.08,0.39,0.92,0.14,-2.66,0.49
-0.09,0.4,0.92,0.14,-2.8,0.42
-0.09,0.4,0.92,0.14,-2.94,0.42
-0.08,0.4,0.92,0,-2.8,0.49
-0.08,0.4,0.92,0,-2.94,0.56
-0.09,0.4,0.92,0,-3.08,0.42
-0.09,0.4,0.92,0,-2.8,0.28
-0.09,0.4,0.92,0,-3.01,0.28
-0.08,0.4,0.92,0,-2.73,0.35
-0.08,0.39,0.92,0.14,-2.59,0.14
-0.09,0.4,0.92,0.28,-2.73,0.35
-0.09,0.4,0.92,0.28,-2.66,0.14
-0.09,0.4,0.92,0.28,-2.87,0.21
-0.08,0.4,0.92,0.35,-2.94,0.42
-0.09,0.4,0.92,0.14,-3.01,0.28
-0.09,0.4,0.92,0.14,-3.08,0.35
-0.09,0.4,0.92,0,-2.87,0.28
-0.09,0.4,0.92,0,-2.94,0.56
-0.09,0.39,0.92,0,-2.87,0.49
-0.09,0.39,0.92,-0.07,-3.01,0.63
-0.09,0.39,0.92,-0.14,-2.94,0.42
-0.09,0.4,0.92,0,-3.01,0.35
-0.09,0.4,0.92,-0.07,-3.01,0.28
-0.09,0.4,0.92,-0.07,-3.08,0.42
-0.08,0.4,0.92,-0.07,-3.01,0.35
-0.08,0.4,0.92,0,-2.94,0.42
-0.09,0.4,0.92,0.21,-3.08,0.49
-0.09,0.4,0.92,0.28,-2.87,0.49
-0.09,0.4,0.92,0.35,-2.8,0.42
-0.09,0.4,0.92,0.21,-2.8,0.42
-0.08,0.4,0.92,0.14,-2.87,0.35
-0.08,0.4,0.92,0.07,-2.87,0.49
-0.08,0.4,0.92,0,-3.15,0.49
-0.09,0.4,0.92,-0.07,-3.08,0.42
-0.08,0.4,0.92,-0.07,-2.8,0.42
-0.09,0.39,0.92,17.78,-3.15,0.42
-0.09,0.39,0.92,0.14,-2.73,0.42
-0.09,0.39,0.92,0.07,-3.01,0.35
-0.09,0.39,0.92,0.14,-2.94,0.42
-0.08,0.4,0.92,0.14,-2.87,0.21
-0.09,0.4,0.92,0.14,-2.94,0.35
-0.08,0.4,0.92,0.07,-2.94,0.28
-0.09,0.4,0.92,-0.07,-2.73,0.28
-0.08,0.4,0.92,0.07,-3.01,0.49
-0.08,0.4,0.92,0,-2.94,0.35
-0.08,0.4,0.92,0.07,-2.87,0.42
-0.08,0.39,0.92,0,-2.66,0.35
-0.08,0.4,0.92,0.14,-2.73,0.49
-0.09,0.4,0.92,0.14,-2.73,0.35
-0.09,0.4,0.92,0.28,-2.73,0.35
-0.09,0.4,0.92,0.28,-3.01,0.56
-0.08,0.4,0.92,0.07,-2.73,0.42
-0.08,0.4,0.92,-0.07,-2.94,0.35
-0.08,0.4,0.92,-0.28,-2.87,0.35
-0.08,0.4,0.92,-0.14,-3.22,0.28
-0.08,0.4,0.92,-0.14,-2.94,0.35
-0.08,0.4,0.92,-0.14,-3.15,0.28
-0.08,0.4,0.92,-0.14,-3.08,0.14
-0.09,0.39,0.92,-0.14,-3.01,0.35
-0.09,0.4,0.92,-0.14,-2.87,0.35
-0.09,0.39,0.92,-0.14,-2.94,0.56
-0.09,0.39,0.92,0.07,-2.73,0.49
-0.09,0.4,0.92,-0.07,-2.94,0.49
-0.09,0.4,0.92,0.14,-3.08,0.56
-0.09,0.4,0.92,0,-2.8,0.63
-0.09,0.4,0.92,0.07,-2.87,0.56
-0.08,0.4,0.92,0,-2.73,0.42
-0.08,0.39,0.92,0.07,-2.94,0.63
-0.08,0.39,0.92,0.07,-3.01,0.35
-0.08,0.39,0.92,0.07,-2.8,0.42
-0.08,0.4,0.92,0.21,-3.01,0.42
-0.08,0.4,0.92,0.28,-3.08,0.49
-0.08,0.4,0.92,0.21,-2.87,0.28
-0.08,0.4,0.92,0.14,-2.87,0.28
-0.08,0.4,0.92,0.21,-2.87,0.42
-0.09,0.4,0.92,0.14,-2.73,0.21
-0.08,0.4,0.92,0.07,-2.87,0.42
-0.09,0.4,0.92,-0.21,-2.8,0.42
-0.09,0.4,0.92,-0.14,-3.01,0.42
-0.09,0.4,0.92,-0.28,-3.01,0.42
-0.08,0.4,0.92,-0.14,-3.01,0.35
-0.08,0.4,0.92,0,-3.01,0.42
-0.09,0.4,0.92,0,-2.94,0.49
-0.08,0.4,0.92,0.07,-2.8,0.42
-0.09,0.4,0.92,0.28,-2.94,0.35
-0.09,0.39,0.92,0.28,-2.94,0.49
-0.09,0.4,0.92,0.28,-2.94,0.42
-0.09,0.4,0.92,0.21,-2.8,0.56
-0.08,0.39,0.92,0.21,-2.94,0.49
-0.09,0.39,0.92,0.21,-3.08,0.42
-0.09,0.4,0.92,0,-2.73,0.28
-0.09,0.4,0.92,0.21,-3.01,0.28
-0.09,0.4,0.92,0.07,-2.73,0.28
-0.09,0.4,0.92,0.07,-2.87,0.35
-0.09,0.4,0.92,-0.14,-2.94,0.35
-0.09,0.4,0.92,-0.21,-3.08,0.42
-0.09,0.4,0.92,-0.14,-3.08,0.42
-0.08,0.4,0.92,-0.21,-3.01,0.35
-0.08,0.4,0.92,-0.14,-3.15,0.49
-0.08,0.4,0.92,17.85,-3.15,0.28
-0.08,0.4,0.92,-0.07,-2.94,0.35
-0.08,0.4,0.92,0.07,-2.94,0.42
-0.09,0.4,0.92,-0.07,-2.8,0.35
-0.09,0.4,0.92,0.07,-2.87,0.42
-0.09,0.4,0.92,0,-2.94,0.42
-0.08,0.39,0.92,0,-2.8,0.28
-0.08,0.39,0.92,0,-2.73,0.28
-0.09,0.4,0.92,-0.14,-2.8,0.35
-0.09,0.4,0.92,0.07,-3.08,0.28
-0.09,0.39,0.92,-0.07,-2.94,0.42
-0.09,0.39,0.92,0,-3.01,0.56
-0.09,0.39,0.92,-0.07,-2.94,0.49
-0.09,0.4,0.92,0,-2.87,0.49
-0.09,0.4,0.92,0,-2.94,0.42
-0.08,0.4,0.92,0.14,-2.87,0.35
-0.08,0.39,0.92,0.07,-3.01,0.56
-0.09,0.39,0.92,-0.07,-2.66,0.35
-0.09,0.39,0.92,0.07,-3.01,0.49
-0.09,0.39,0.92,0.07,-2.87,0.35
-0.09,0.39,0.92,0.07,-3.01,0.42
-0.08,0.4,0.92,0,-2.94,0.35
-0.09,0.4,0.92,-0.14,-3.15,0.42
-0.09,0.4,0.92,-0.14,-3.22,0.14
-0.08,0.39,0.92,0.07,-3.15,0.21
-0.09,0.4,0.92,0.14,-2.8,0.21
-0.09,0.39,0.92,0.28,-2.73,0.21
-0.09,0.4,0.92,0.49,-2.87,0.14
-0.09,0.4,0.92,0.49,-2.73,0.49
-0.09,0.4,0.92,0.35,-2.59,0.56
-0.09,0.39,0.92,0.21,-2.73,0.56
-0.09,0.4,0.92,0.07,-2.94,0.63
-0.09,0.39,0.92,0,-3.01,0.77
-0.08,0.39,0.92,0,-3.01,0.7
-0.08,0.39,0.92,-0.07,-3.01,0.63
-0.08,0.39,0.92,0,-2.94,0.42
-0.08,0.4,0.92,0.14,-3.01,0.49
-0.08,0.39,0.92,0.21,-2.87,0.42
-0.08,0.39,0.92,0.21,-2.87,0.42
-0.09,0.4,0.92,0.35,-2.8,0.35
-0.08,0.4,0.92,0.42,-2.73,0.21
-0.09,0.4,0.92,0.35,-2.73,0.35
-0.08,0.4,0.92,0.35,-2.87,0.42
-0.08,0.4,0.92,0.28,-2.87,0.35
-0.08,0.4,0.92,0.21,-2.8,0.07
-0.08,0.4,0.92,0,-2.94,0.21
-0.08,0.4,0.92,-0.07,-2.73,0.28
-0.09,0.4,0.92,0,-2.59,0.42
-0.08,0.4,0.92,0,-2.66,0.28
-0.08,0.4,0.92,0.07,-2.66,0.28
-0.09,0.4,0.92,0.14,-2.73,0.21
-0.09,0.4,0.92,0.07,-2.87,0.35
-0.09,0.4,0.92,-0.14,-2.94,0.28
-0.09,0.4,0.92,-0.14,-2.59,0.28
-0.09,0.4,0.92,-0.35,-3.08,0.21
-0.09,0.4,0.92,-0.42,-3.08,0.35
-0.09,0.4,0.92,-0.42,-3.01,0.28
-0.09,0.4,0.92,-0.49,-3.01,0.28
-0.09,0.39,0.92,-0.42,-3.15,0.56
-0.08,0.39,0.92,-0.28,-3.01,0.42
-0.09,0.39,0.92,-0.07,-3.08,0.42
-0.09,0.4,0.92,0.07,-2.8,0.42
-0.08,0.4,0.92,0.21,-2.73,0.42
-0.08,0.4,0.92,0.28,-2.73,0.42
-0.08,0.4,0.92,0.42,-2.66,0.49
-0.08,0.4,0.92,0.42,-2.87,0.63
-0.08,0.4,0.92,0.42,-2.94,0.42
-0.08,0.4,0.92,0.28,-2.8,0.42
-0.08,0.39,0.92,0.42,-2.73,0.35
-0.09,0.39,0.92,0.35,-2.59,0.35
-0.09,0.39,0.92,0.21,-2.66,0.14
-0.09,0.39,0.92,0.14,-2.66,0.21
-0.09,0.39,0.92,0,-2.73,0.28
-0.08,0.39,0.92,-0.14,-2.8,0.42
-0.09,0.39,0.92,-0.28,-3.01,0.56
-0.08,0.39,0.93,-0.35,-2.52,0.77
-0.08,0.39,0.93,0.07,-2.87,0.7
-0.08,0.39,0.92,0.28,-2.73,0.91
-0.08,0.39,0.92,0.63,-2.66,0.77
-0.09,0.39,0.92,0.91,-2.52,0.7
-0.09,0.39,0.92,1.12,-2.45,0.7
-0.09,0.39,0.92,1.4,-2.45,0.63
-0.09,0.39,0.92,1.4,-2.66,0.63
-0.09,0.4,0.92,1.26,-2.59,0.56
-0.09,0.4,0.92,1.19,-2.87,0.49
-0.09,0.41,0.92,0.91,-2.66,0.21
-0.09,0.41,0.92,0.63,-3.15,0.35
-0.09,0.41,0.92,0,-3.36,0.42
-0.09,0.41,0.92,-0.42,-3.43,0.42
-0.09,0.41,0.92,-0.63,-3.29,0.21
-0.09,0.41,0.92,-0.77,-3.43,0.21
-0.09,0.41,0.92,-0.77,-3.36,0.14
-0.09,0.41,0.92,-0.91,-3.43,0.28
-0.09,0.41,0.92,-1.05,-3.43,0
-0.08,0.41,0.92,-1.26,-3.57,-0.14
-0.08,0.41,0.92,-1.61,-3.5,-17.92
-0.09,0.4,0.92,-1.68,-3.71,0.07
-0.08,0.41,0.92,-1.82,-3.57,-0.07
-0.08,0.4,0.92,-1.96,-3.85,-0.07
-0.08,0.4,0.92,-2.1,-3.78,-0.14
-0.08,0.4,0.92,-2.03,-3.64,0.14
-0.08,0.39,0.92,-1.68,-3.57,0.07
-0.08,0.39,0.92,-1.33,-3.5,0.35
-0.08,0.39,0.92,-1.12,-3.08,0.42
-0.08,0.39,0.92,-0.49,-2.94,0.7
-0.08,0.38,0.92,-0.21,-2.59,0.98
-0.08,0.38,0.92,0.14,-2.17,1.12
-0.08,0.38,0.92,0.63,-2.03,1.33
-0.08,0.38,0.93,1.12,-1.89,1.4
-0.09,0.38,0.93,1.47,-1.89,1.54
-0.08,0.38,0.93,1.68,-1.54,1.33
-0.09,0.38,0.93,1.82,-1.75,1.4
-0.09,0.38,0.93,1.89,-1.89,1.26
-0.09,0.38,0.93,1.75,-2.1,1.05
-0.09,0.39,0.92,1.54,-2.17,1.05
-0.08,0.39,0.92,1.4,-2.59,0.84
-0.09,0.39,0.92,1.12,-3.22,0.7
-0.08,0.39,0.92,1.05,-3.29,0.28
-0.08,0.39,0.92,0.77,-3.29,-0.21
-0.08,0.4,0.92,0.63,-3.36,-0.42
-0.09,0.4,0.92,0.49,-3.57,-0.7
-0.09,0.41,0.92,0.49,-3.5,-0.7
-0.09,0.41,0.92,0.28,-3.43,-0.91
-0.09,0.41,0.92,0.07,-3.64,-0.7
-0.09,0.41,0.92,-0.28,-3.78,-0.77
-0.09,0.41,0.92,-0.77,-3.78,-0.63
-0.09,0.41,0.92,-1.05,-3.64,-0.42
-0.08,0.41,0.92,-1.26,-3.57,-0.42
-0.08,0.41,0.92,-1.19,-3.5,0
-0.08,0.41,0.92,-0.91,-3.36,0.21
-0.08,0.4,0.92,-0.7,-2.94,0.21
-0.08,0.4,0.92,-0.35,-2.66,0.35
-0.08,0.39,0.92,0,-2.73,0.63
-0.08,0.39,0.92,0.28,-2.38,0.7
-0.08,0.4,0.92,0.49,-2.45,0.84
-0.09,0.39,0.92,0.56,-2.38,0.98
-0.09,0.39,0.92,0.56,-2.03,0.98
-0.09,0.39,0.92,0.63,-2.38,1.19
-0.09,0.39,0.92,0.63,-2.45,1.12
-0.09,0.39,0.92,0.63,-2.66,1.05
-0.09,0.39,0.92,0.42,-2.59,0.98
-0.09,0.39,0.92,0.63,-2.94,1.19
-0.08,0.39,0.92,0.49,-2.8,1.05
-0.09,0.39,0.92,0.49,-3.01,1.05
-0.08,0.39,0.92,0.35,-2.73,0.77
-0.08,0.39,0.92,0.35,-2.8,0.77
-0.08,0.39,0.92,0.14,-3.08,0.35
-0.08,0.4,0.92,0.07,-3.08,0.35
-0.08,0.4,0.92,0,-3.29,0.28
-0.08,0.4,0.92,-0.21,-3.29,0.14
-0.08,0.4,0.92,-0.28,-3.22,0
-0.08,0.4,0.92,-0.42,-3.01,-0.14
-0.08,0.4,0.92,-0.49,-3.22,-0.07
-0.08,0.4,0.92,-0.49,-3.15,-0.14
-0.08,0.4,0.92,-0.42,-3.08,-0.14
-0.08,0.4,0.92,-0.28,-2.87,-0.21
-0.08,0.4,0.92,-0.21,-2.94,-0.07
-0.08,0.39,0.92,-0.07,-2.87,0.07
-0.09,0.4,0.92,0.07,-2.8,0.14
-0.09,0.4,0.92,0.07,-2.73,0.28
-0.09,0.4,0.92,0.21,-2.73,0.35
-0.09,0.4,0.92,0.21,-2.52,0.14
-0.09,0.39,0.92,0.35,-2.8,0.42
-0.09,0.39,0.92,0.42,-2.87,0.35
-0.09,0.39,0.92,0.42,-2.8,0.42
-0.09,0.39,0.92,0.35,-3.01,0.56
-0.09,0.4,0.92,0.21,-2.94,0.77
-0.09,0.39,0.92,0.28,-3.08,0.84
-0.09,0.39,0.92,0.28,-3.08,0.77
-0.09,0.4,0.92,0.28,-3.01,0.84
-0.08,0.39,0.92,0.35,-2.87,0.7
-0.08,0.39,0.92,0.35,-3.01,0.77
-0.08,0.4,0.92,0.63,-3.01,0.84
-0.08,0.4,0.92,0.63,-2.73,0.7
-0.08,0.4,0.92,0.77,-3.08,0.91
-0.08,0.4,0.92,0.7,-2.87,0.84
-0.08,0.4,0.92,0.77,-2.73,0.56
-0.08,0.4,0.92,0.49,-2.66,0.35
-0.08,0.4,0.92,0.35,-2.8,0.42
-0.08,0.4,0.92,0.21,-2.87,0.56
-0.08,0.4,0.92,0.07,-2.87,0.42
-0.09,0.4,0.92,0,-2.94,0.14
-0.08,0.4,0.92,-0.28,-2.8,0.28
-0.09,0.4,0.92,-0.28,-2.94,0.07
-0.09,0.4,0.92,-0.28,-3.01,0
-0.09,0.4,0.92,-0.35,-2.94,0
-0.09,0.4,0.92,-0.42,-3.08,0
-0.09,0.4,0.92,-0.63,-3.01,0.07
-0.09,0.4,0.92,-0.77,-3.29,0.07
-0.09,0.4,0.92,-0.84,-3.15,0.07
-0.09,0.4,0.92,-0.84,-3.22,0.21
-0.09,0.4,0.92,-0.63,-3.22,0.21
-0.09,0.39,0.92,-0.49,-2.87,0.42
-0.09,0.39,0.92,-0.21,-3.01,0.42
-0.09,0.39,0.92,0,-2.87,0.56
-0.08,0.39,0.92,0.14,-2.87,0.42
-0.09,0.39,0.92,0.14,-2.8,0.49
-0.09,0.39,0.92,0.35,-2.8,0.63
-0.09,0.39,0.92,0.49,-2.73,0.77
-0.08,0.39,0.92,0.42,-2.52,0.77
-0.08,0.39,0.92,0.49,-2.73,0.7
-0.09,0.39,0.92,0.56,-3.15,0.84
-0.08,0.39,0.92,0.42,-2.73,0.77
-0.08,0.39,0.92,0.42,-2.87,0.7
-0.08,0.39,0.92,0.35,-2.87,0.77
-0.08,0.39,0.92,0.28,-2.73,0.56
-0.08,0.4,0.92,0.49,-2.94,0.42
-0.08,0.4,0.92,0.56,-3.01,0.28
-0.08,0.4,0.92,0.42,-2.66,0.35
-0.08,0.4,0.92,0.49,-2.94,0.21
-0.09,0.4,0.92,0.56,-3.08,0.14
-0.09,0.4,0.92,0.14,-2.94,0.14
-0.09,0.4,0.92,0.14,-3.08,-0.07
-0.09,0.4,0.92,0.07,-3.29,0
-0.09,0.4,0.92,-0.07,-3.01,-0.14
-0.09,0.4,0.92,-0.07,-2.94,-0.07
-0.09,0.4,0.92,0,-3.15,0
-0.09,0.4,0.92,-0.14,-3.01,0
-0.09,0.4,0.92,-0.28,-2.87,0.07
-0.09,0.4,0.92,-0.35,-3.08,0.14
-0.09,0.4,0.92,-0.42,-3.15,0.21
-0.08,0.4,0.92,-0.56,-3.01,0.35
-0.09,0.4,0.92,-0.56,-2.8,0.49
-0.09,0.4,0.92,-0.28,-2.8,0.77
-0.09,0.4,0.92,0,-2.73,0.63
-0.09,0.4,0.92,0.14,-2.59,0.77
-0.09,0.39,0.92,0.35,-2.73,0.63
-0.08,0.4,0.92,0.42,-2.73,0.7
-0.08,0.39,0.92,0.42,-2.8,0.84
-0.09,0.39,0.92,0.28,-2.73,0.56
-0.08,0.39,0.92,0.21,-3.01,0.77
-0.08,0.39,0.92,0.07,-3.01,0.42
-0.08,0.4,0.92,-0.21,-2.87,0.42
-0.08,0.39,0.92,-0.21,-3.08,0.42
-0.08,0.4,0.92,-0.14,-3.08,0.21
-0.08,0.39,0.92,-0.07,-3.15,0.28
-0.08,0.39,0.92,0.07,-3.29,0.14
-0.08,0.4,0.92,0,-3.01,0.14
-0.08,0.4,0.92,0.07,-2.8,0.21
-0.08,0.4,0.92,0.14,-2.8,0.21
-0.08,0.4,0.92,0.14,-2.87,0.28
-0.09,0.4,0.92,0.14,-2.8,0.35
-0.09,0.4,0.92,0.14,-2.87,0.35
-0.09,0.4,0.92,0.07,-2.94,0.28
-0.08,0.4,0.92,-0.07,-2.87,0.42
-0.09,0.39,0.92,0,-3.15,0.21
-0.09,0.4,0.92,0,-2.87,0.14
-0.09,0.4,0.92,0.14,-2.94,0.21
-0.09,0.4,0.92,0.21,-2.8,0.14
-0.09,0.4,0.92,0.42,-2.87,0.21
-0.09,0.4,0.92,0.35,-2.94,0.14
-0.09,0.4,0.92,0.35,-3.08,0.21
-0.09,0.4,0.92,0.35,-3.22,0.35
-0.09,0.4,0.92,0.28,-3.08,0.35
-0.09,0.4,0.92,0.21,-3.08,0.42
-0.08,0.4,0.92,0.14,-2.94,0.28
-0.08,0.4,0.92,0.07,-2.94,0.56
-0.08,0.4,0.92,0,-2.87,0.56
-0.08,0.4,0.92,0,-2.73,0.56
-0.08,0.4,0.92,-0.14,-2.8,0.56
-0.08,0.4,0.92,0.14,-2.8,0.56
-0.08,0.4,0.92,0.14,-2.73,0.56
-0.08,0.4,0.92,0.07,-2.87,0.35
-0.08,0.4,0.92,0.07,-2.8,0.28
-0.08,0.4,0.92,0,-2.87,0.42
-0.08,0.4,0.92,-0.14,-2.87,0.35
-0.08,0.4,0.92,-0.07,-3.01,0.42
-0.09,0.4,0.92,-0.21,-2.94,0.35
-0.08,0.39,0.92,-0.07,-3.01,0.49
-0.09,0.39,0.92,0,-2.94,0.42
-0.09,0.39,0.92,0.07,-2.87,0.42
-0.09,0.39,0.92,0.07,-2.8,0.35
-0.09,0.4,0.92,0.14,-2.8,0.42
-0.09,0.39,0.92,0.14,-2.87,0.56
-0.09,0.4,0.92,0.14,-2.87,0.35
-0.09,0.39,0.92,0.14,-2.87,0.42
-0.08,0.4,0.92,0.28,-3.01,0.35
-0.09,0.4,0.92,0.21,-2.94,0.28
-0.09,0.4,0.92,0.21,-2.8,0.42
-0.08,0.4,0.92,0.21,-2.94,0.21
-0.08,0.4,0.92,0.21,-3.08,0.35
-0.09,0.4,0.92,0.14,-2.87,0.21
-0.08,0.4,0.92,0.14,-3.08,0.07
-0.08,0.39,0.92,0.14,-3.01,0.28
-0.08,0.4,0.92,0.07,-3.01,0.14
-0.09,0.4,0.92,0.07,-2.94,0.14
-0.09,0.4,0.92,0,-3.01,0.21
-0.08,0.4,0.92,-0.07,-3.01,0.28
-0.08,0.4,0.92,0,-3.01,0.49
-0.08,0.4,0.92,0,-2.8,0.28
-0.08,0.4,0.92,0,-2.8,0.21
-0.08,0.4,0.92,0.14,-2.66,0.28
-0.08,0.4,0.92,0.35,-2.87,0.42
-0.09,0.4,0.92,0.21,-2.73,0.28
-0.09,0.4,0.92,0.35,-3.01,0.35
-0.08,0.4,0.92,0.14,-2.87,0.35
-0.09,0.4,0.92,0,-2.8,0.28
-0.08,0.4,0.92,0.07,-2.8,0.21
-0.09,0.4,0.92,-0.07,-2.8,0.28
-0.09,0.4,0.92,0.07,-2.94,0.35
-0.08,0.4,0.92,0,-3.01,0.28
-0.08,0.4,0.92,-0.07,-2.94,0.35
-0.09,0.4,0.92,-0.21,-2.73,0.35
-0.09,0.4,0.92,-0.07,-2.73,0.49
-0.09,0.4,0.92,0,-2.94,0.35
-0.08,0.4,0.92,0,-2.87,0.35
-0.09,0.39,0.92,0.07,-2.87,0.56
-0.09,0.4,0.92,0.28,-3.15,0.56
-0.09,0.4,0.92,0.14,-2.87,0.28
-0.09,0.39,0.92,0,-2.87,0.42
-0.09,0.4,0.92,0.07,-2.94,0.42
-0.09,0.4,0.92,0.14,-2.94,0.42
-0.08,0.4,0.92,0.07,-2.8,0.42
-0.09,0.39,0.92,0.14,-2.66,0.35
-0.08,0.4,0.92,0.28,-2.8,0.42
-0.08,0.4,0.92,0.21,-2.66,0.35
-0.08,0.39,0.92,0.28,-3.01,0.42
-0.08,0.4,0.92,0.07,-2.94,0.42
-0.08,0.4,0.92,0.07,-2.73,0.28
-0.08,0.39,0.92,-17.92,-2.8,0.14
-0.08,0.4,0.92,0,-2.94,0.28
-0.08,0.4,0.92,-0.07,-2.8,0.21
-0.08,0.4,0.92,0,-2.8,0.21
-0.08,0.4,0.92,0.14,-2.8,0.28
-0.08,0.4,0.92,0.14,-2.87,0.35
-0.09,0.4,0.92,0.28,-2.87,0.35
-0.09,0.4,0.92,0.28,-2.73,0.42
-0.09,0.4,0.92,0.21,-2.66,0.28
-0.09,0.4,0.92,0.07,-2.94,0.42
-0.09,0.4,0.92,0.14,-2.94,0.35
-0.09,0.4,0.92,0.14,-3.08,0.35
-0.08,0.4,0.92,0,-3.01,0.28
-0.09,0.4,0.92,-0.07,-3.08,0.35
-0.09,0.39,0.92,-0.07,-2.94,0.28
-0.09,0.4,0.92,0.07,-2.94,0.28
-0.09,0.4,0.92,0.14,-2.94,0.21
-0.09,0.4,0.92,0.28,-2.8,0.21
-0.09,0.4,0.92,0.35,-2.94,0.42
-0.09,0.4,0.92,0.35,-2.87,0.42
-0.09,0.4,0.92,0.35,-3.08,0.42
-0.09,0.4,0.92,0.21,-3.01,0.42
-0.08,0.4,0.92,0.21,-2.94,0.49
-0.08,0.4,0.92,0.14,-2.94,0.56
-0.08,0.4,0.92,0.14,-2.73,0.49
-0.08,0.4,0.92,0.07,-2.66,0.42
-0.08,0.39,0.92,0.07,-2.66,0.42
-0.09,0.4,0.92,0.07,-2.8,0.49
-0.08,0.4,0.92,0.07,-2.87,0.28
-0.09,0.4,0.92,-0.21,-2.94,0.21
-0.09,0.4,0.92,-0.21,-3.15,0.35
-0.09,0.4,0.92,-0.35,-3.15,0.35
-0.09,0.39,0.92,-0.35,-3.22,0.28
-0.08,0.4,0.92,-0.28,-3.08,0.21
-0.09,0.4,0.92,-0.21,-3.08,0.28
-0.08,0.4,0.92,-0.14,-2.94,0.35
-0.09,0.4,0.92,-0.07,-2.94,0.28
-0.09,0.39,0.92,0.21,-2.87,0.42
-0.09,0.4,0.92,0.28,-2.87,0.42
-0.09,0.4,0.92,0.28,-2.66,0.35
-0.09,0.4,0.92,0.28,-2.66,0.21
-0.09,0.4,0.92,0.42,-2.8,0.28
-0.09,0.4,0.92,0.35,-2.94,0.35
-0.09,0.4,0.92,0.21,-2.94,0.42
-0.09,0.4,0.92,0,-2.94,0.35
-0.09,0.4,0.92,-0.07,-3.22,0.49
-0.09,0.4,0.92,-0.14,-2.94,0.35
-0.09,0.39,0.92,-0.07,-2.94,0.42
-0.08,0.4,0.92,-0.14,-3.08,0.42
-0.08,0.4,0.92,0,-2.94,0.42
-0.08,0.39,0.92,0.07,-2.87,0.42
-0.08,0.4,0.92,0.07,-2.73,0.35
-0.08,0.4,0.92,0.42,-2.8,0.49
-0.09,0.4,0.92,0.35,-2.66,0.42
-0.08,0.4,0.92,0.28,-2.8,0.35
-0.09,0.4,0.92,0,-2.87,0.49
-0.09,0.4,0.92,-0.28,-2.66,0.14
-0.09,0.4,0.92,-0.21,-3.08,0.35
-0.09,0.4,0.92,-0.21,-3.22,0.35
-0.08,0.4,0.92,-0.21,-3.15,0.21
-0.09,0.4,0.92,-0.14,-2.94,0.42
-0.08,0.4,0.92,0,-3.15,0.49
-0.09,0.4,0.92,-0.07,-3.08,0.49
-0.08,0.39,0.92,0,-3.22,0.42
-0.09,0.4,0.92,-0.14,-2.87,0.49
-0.08,0.4,0.92,0,-2.94,0.35
-0.09,0.4,0.92,0.07,-2.8,0.42
-0.08,0.4,0.92,0.07,-2.8,0.49
-0.08,0.4,0.92,0.28,-2.87,0.42
-0.08,0.4,0.92,0.49,-3.01,0.49
-0.08,0.4,0.92,0.21,-2.73,0.42
-0.09,0.4,0.92,0.21,-2.73,0.49
-0.09,0.4,0.92,0.14,-2.87,0.49
-0.08,0.4,0.92,0.14,-2.8,0.28
-0.08,0.4,0.92,0.07,-3.08,0.28
-0.08,0.4,0.92,0.14,-2.8,0.42
-0.09,0.4,0.92,0.07,-2.87,0.28
-0.08,0.39,0.93,1.33,-2.73,0.42
-0.08,0.39,0.93,0.63,-2.8,0.56
-0.08,0.39,0.92,0.07,-3.08,0.42
-0.08,0.39,0.92,-0.28,-3.36,0.56
-0.08,0.38,0.92,-0.21,-3.43,0.56
-0.08,0.38,0.92,0.07,-3.22,0.49
-0.08,0.39,0.92,0.21,-2.8,0.35
-0.08,0.39,0.92,0.28,-3.08,0.35
-0.08,0.39,0.92,0,-2.87,0.14
-0.08,0.39,0.92,-0.14,-3.08,0.35
-0.08,0.39,0.93,-0.14,-3.08,0.28
-0.08,0.39,0.93,-0.07,-3.22,0.21
-0.08,0.39,0.93,0.07,-3.08,-0.07
-0.08,0.39,0.93,0.28,-3.01,0
-0.08,0.39,0.92,0.21,-3.29,0
-0.08,0.39,0.92,0,-3.08,0.07
-0.08,0.39,0.92,-0.14,-3.22,0.21
-0.08,0.39,0.92,-0.28,-2.94,0.21
-0.08,0.39,0.92,-0.56,-3.08,0.42
-0.08,0.39,0.92,-0.7,-2.8,0.42
-0.08,0.39,0.92,-0.77,-3.01,0.63
-0.08,0.38,0.92,-0.49,-2.94,0.63
-0.08,0.39,0.92,-0.14,-2.94,0.56
-0.08,0.39,0.93,0.07,-2.66,0.49
-0.08,0.39,0.93,0.35,-2.8,0.49
-0.08,0.39,0.93,0.42,-2.73,0.49
-0.08,0.39,0.93,0.42,-2.8,0.42
-0.08,0.39,0.93,0.42,-3.01,0.49
-0.08,0.39,0.93,0.42,-3.01,0.42
-0.08,0.39,0.92,0.21,-2.87,0.42
-0.08,0.39,0.93,0.35,-3.15,0.42
-0.08,0.39,0.92,0.49,-3.08,0.35
-0.08,0.38,0.92,0.63,-2.8,0.56
-0.08,0.39,0.92,0.77,-2.73,0.56
-0.08,0.39,0.92,0.7,-2.52,0.49
-0.08,0.39,0.92,0.56,-2.52,0.56
-0.08,0.39,0.92,0.21,-2.66,0.56
-0.08,0.39,0.92,0.07,-2.73,0.42
-0.08,0.39,0.92,-0.07,-2.73,0.42
-0.08,0.39,0.92,-0.28,-3.01,0.35
-0.08,0.38,0.93,-0.35,-3.01,0.35
-0.08,0.39,0.93,-0.35,-3.01,0.28
-0.08,0.39,0.92,-0.07,-3.01,0.28
-0.08,0.39,0.93,0.14,-3.15,0.42
-0.08,0.39,0.93,0.28,-2.87,0.21
-0.08,0.39,0.93,0.49,-2.8,0.21
-0.08,0.39,0.93,0.7,-2.87,0.14
-0.08,0.39,0.92,0.56,-2.59,0.07
-0.08,0.39,0.92,0.56,-2.94,0.28
-0.08,0.39,0.92,0.21,-3.15,0.28
-0.08,0.39,0.92,-0.21,-3.08,0.07
-0.08,0.39,0.92,-0.14,-3.15,0.28
-0.08,0.39,0.92,-0.14,-3.01,0.35
-0.08,0.39,0.92,0.14,-2.94,0.49
-0.08,0.39,0.92,0.14,-2.87,0.28
-0.08,0.39,0.92,0.42,-2.59,0.42
-0.09,0.4,0.92,0.14,-2.59,0.21
-0.08,0.39,0.92,-0.14,-2.8,0.42
-0.08,0.39,0.93,-0.14,-2.87,0.56
-0.08,0.39,0.93,0.28,-2.59,0.49
-0.08,0.39,0.93,0.49,-2.66,0.56
-0.08,0.39,0.92,0.63,-2.59,0.49
-0.08,0.39,0.92,0.49,-2.8,0.35
-0.08,0.39,0.92,0.35,-2.66,0.35
-0.08,0.39,0.92,0.42,-2.87,0.35
-0.07,0.38,0.92,0.63,-2.8,0.42
-0.08,0.39,0.92,0.91,-2.73,0.35
-0.08,0.39,0.92,1.05,-2.52,0.28
-0.08,0.39,0.92,0.98,-2.38,0.21
-0.08,0.39,0.92,0.63,-2.52,0.28
-0.09,0.39,0.92,0.21,-2.45,0.28
-0.09,0.39,0.92,-0.14,-2.87,0.21
-0.09,0.39,0.93,-0.21,-2.8,0.14
-0.09,0.39,0.93,-0.07,-2.87,0.35
-0.08,0.39,0.93,0.28,-3.36,0.14
-0.08,0.39,0.93,0.35,-3.15,0.14
-0.08,0.39,0.93,0.49,-2.94,0.28
-0.08,0.39,0.92,0.21,-2.87,0
-0.08,0.39,0.93,0,-3.15,0.14
-0.08,0.39,0.92,-0.07,-3.15,0.14
-0.08,0.39,0.92,-0.07,-3.15,0.21
-0.08,0.39,0.92,0.21,-2.94,0.21
-0.08,0.39,0.92,0.56,-3.01,0.21
-0.08,0.39,0.92,0.63,-2.87,0.21
-0.08,0.39,0.92,0.49,-3.01,0.35
-0.08,0.39,0.92,0.07,-2.87,0.42
-0.08,0.39,0.92,-0.21,-3.01,0.49
-0.08,0.39,0.92,-0.42,-2.87,0.49
-0.08,0.39,0.92,-0.42,-2.94,0.49
-0.08,0.39,0.92,-0.28,-2.87,0.49
-0.08,0.39,0.92,-0.07,-2.87,0.63
-0.08,0.39,0.92,0.07,-2.94,0.63
-0.08,0.39,0.92,0.21,-2.87,0.49
-0.08,0.4,0.92,0.21,-2.66,0.42
-0.08,0.39,0.92,0.14,-2.52,0.49
-0.08,0.39,0.92,0.07,-2.66,0.56
-0.09,0.39,0.93,0.14,-2.8,0.42
-0.09,0.39,0.93,-0.07,-2.94,0.49
-0.09,0.39,0.92,-0.07,-2.73,0.56
-0.09,0.39,0.93,0,-2.8,0.56
-0.09,0.39,0.92,0.14,-3.01,0.56
-0.08,0.39,0.93,0.07,-3.01,0.63
-0.08,0.39,0.93,0,-3.01,0.49
-0.08,0.39,0.92,-0.14,-3.08,0.42
-0.08,0.38,0.92,-0.35,-3.22,0.42
-0.08,0.38,0.92,-0.28,-3.22,0.35
-0.08,0.39,0.92,-0.21,-3.36,0.21
-0.08,0.39,0.92,-0.21,-3.15,0
-0.08,0.39,0.92,-0.14,-3.15,0.14
-0.08,0.38,0.93,-0.07,-2.94,0.21
-0.08,0.38,0.93,0.42,-2.73,0.21
-0.08,0.39,0.93,0.84,-2.52,0.21
-0.08,0.39,0.93,0.84,-2.38,0.21
-0.08,0.39,0.92,0.91,-2.52,0.28
-0.09,0.39,0.92,0.56,-2.66,0.35
-0.09,0.39,0.92,0.07,-3.08,0.42
-0.09,0.39,0.92,-0.42,-3.22,0.49
-0.08,0.39,0.92,-0.77,-3.43,0.56
-0.08,0.39,0.92,-0.98,-3.29,0.28
-0.08,0.39,0.92,-0.63,-3.15,0.49
-0.08,0.39,0.92,-0.07,-2.94,0.42
-0.08,0.39,0.92,0.21,-3.01,0.63
-0.08,0.39,0.92,0.28,-2.8,0.35
-0.08,0.38,0.92,-0.21,-3.15,0.7
-0.08,0.38,0.93,-0.14,-2.73,0.77
-0.08,0.39,0.93,0.49,-2.87,0.56
-0.08,0.39,0.93,1.33,-2.59,0.56
-0.09,0.39,0.92,1.4,-2.45,0.42
-0.09,0.39,0.92,1.33,-2.52,0.35
-0.08,0.39,0.92,1.12,-2.52,0.28
-0.08,0.39,0.92,0.98,-2.59,0.42
-0.08,0.39,0.92,0.49,-2.73,0.42
-0.08,0.39,0.92,0.21,-2.87,0.21
-0.08,0.39,0.92,-0.21,-3.01,0.28
-0.08,0.39,0.92,-0.56,-2.94,0.35
-0.08,0.39,0.92,-0.91,-3.29,0.35
-0.08,0.39,0.92,-0.98,-3.5,0.35
-0.08,0.39,0.92,-0.91,-3.08,0.21
-0.08,0.39,0.92,-0.84,-3.08,0.35
-0.08,0.39,0.92,-0.84,-3.01,0.28
-0.08,0.39,0.93,-0.49,-2.94,0.35
-0.09,0.39,0.93,-0.14,-2.94,0.21
-0.09,0.39,0.93,0.21,-2.52,0.35
-0.09,0.39,0.93,0.42,-2.87,0.42
-0.09,0.39,0.93,0.56,-2.45,0.35
-0.09,0.39,0.93,0.63,-2.66,0.42
-0.09,0.39,0.93,0.77,-2.66,0.42
-0.08,0.39,0.92,0.7,-2.73,0.42
-0.08,0.39,0.92,0.63,-2.87,0.56
-0.08,0.39,0.92,0.63,-2.73,0.42
-0.08,0.39,0.92,0.49,-2.87,0.56
-0.08,0.39,0.92,0.7,-2.94,0.63
-0.08,0.39,0.92,0.49,-2.66,0.49
-0.08,0.39,0.92,0.63,-2.94,0.49
-0.08,0.39,0.92,0.49,-2.8,0.42
-0.08,0.39,0.92,0.49,-3.01,0.42
-0.08,0.39,0.93,0.42,-2.87,0.42
-0.08,0.39,0.93,0.49,-2.73,0.42
-0.08,0.39,0.92,0.49,-2.73,0.28
-0.08,0.39,0.92,0.7,-2.73,0.35
-0.08,0.39,0.93,0.77,-2.45,0.14
-0.08,0.39,0.92,1.12,-2.45,0.14
-0.08,0.39,0.92,1.33,-2.45,0.07
-0.09,0.39,0.92,1.33,-2.52,-0.07
-0.08,0.39,0.92,1.19,-2.8,0.07
-0.08,0.39,0.92,0.49,-2.87,0.35
-0.08,0.39,0.92,-0.14,-3.08,0.35
-0.08,0.39,0.92,-0.63,-2.94,0.42
-0.08,0.39,0.92,-0.77,-3.15,0.7
-0.08,0.39,0.92,-0.7,-2.87,0.49
-0.08,0.39,0.92,-0.14,-3.01,0.56
-0.08,0.39,0.92,0.28,-2.87,0.63
-0.08,0.39,0.93,0.98,-2.38,0.49
-0.08,0.39,0.92,1.4,-2.1,0.42
-0.08,0.39,0.92,1.61,-2.03,0.49
-0.08,0.39,0.92,1.47,-2.1,0.56
-0.09,0.39,0.92,1.33,-2.45,0.49
-0.09,0.39,0.92,1.19,-2.52,0.56
-0.09,0.39,0.92,0.77,-2.73,0.7
-0.09,0.39,0.92,0.42,-2.94,0.63
-0.09,0.39,0.92,0.07,-2.87,0.63
-0.09,0.39,0.92,-0.28,-2.73,0.63
-0.08,0.39,0.93,-0.28,-3.08,0.63
-0.09,0.4,0.92,-0.84,-3.15,0.42
-0.08,0.38,0.92,-1.12,-3.36,0.42
-0.08,0.39,0.92,-1.05,-3.43,0.35
-0.08,0.39,0.92,-0.63,-3.43,0.35
-0.08,0.39,0.92,0,-3.01,0.35
-0.08,0.39,0.93,0.63,-2.8,0.42
-0.08,0.39,0.92,1.12,-2.45,0.21
-0.08,0.39,0.92,1.61,-2.38,0.49
-0.08,0.39,0.92,1.68,-2.24,0.42
-0.08,0.4,0.92,1.47,-2.31,0.49
-0.08,0.4,0.92,0.98,-2.38,0.49
-0.09,0.4,0.92,0.49,-2.73,0.42
-0.09,0.4,0.92,-0.07,-3.22,0.56
-0.09,0.4,0.92,-0.77,-3.36,0.28
-0.08,0.39,0.92,-1.12,-3.43,0.14
-0.08,0.39,0.92,-1.12,-3.15,0.14
-0.08,0.39,0.92,-0.49,-3.01,0
-0.08,0.39,0.92,0,-2.87,0.07
-0.08,0.38,0.93,0.63,-2.24,0.42
-0.09,0.39,0.93,-0.14,-2.66,0.63
-0.09,0.39,0.93,-0.63,-2.94,0.49
-0.08,0.39,0.93,-0.56,-2.94,0.49
-0.08,0.39,0.93,-0.21,-3.36,0.56
-0.08,0.38,0.92,-0.07,-3.22,0.49
-0.07,0.39,0.92,0.28,-3.08,0.42
-0.07,0.38,0.92,0.77,-3.01,0.35
-0.07,0.39,0.92,0.91,-2.8,0.28
-0.08,0.39,0.92,0.7,-2.59,0.21
-0.08,0.39,0.91,0.35,-2.59,0.07
-0.08,0.4,0.92,-0.14,-3.01,0.14
-0.08,0.4,0.92,-0.7,-3.15,0.21
-0.08,0.4,0.92,-1.12,-3.22,0.35
-0.08,0.4,0.92,-1.33,-3.22,0.49
-0.09,0.4,0.92,-1.19,-3.5,0.49
-0.08,0.4,0.92,-1.12,-3.22,0.63
-0.09,0.39,0.92,-1.12,-3.01,0.7
-0.09,0.4,0.92,-1.26,-2.94,0.84
-0.08,0.39,0.93,-1.12,-2.94,0.91
-0.08,0.39,0.93,-0.84,-2.59,0.84
-0.08,0.39,0.93,-0.56,-2.59,0.84
-0.08,0.39,0.93,0.14,-2.59,0.84
-0.08,0.39,0.93,0.35,-2.45,0.91
-0.09,0.39,0.92,0.63,-2.52,1.12
-0.09,0.39,0.92,0.56,-2.52,0.98
-0.08,0.38,0.92,0.49,-2.59,0.77
-0.09,0.38,0.93,0.35,-2.38,0.84
-0.09,0.38,0.93,0.42,-2.73,0.7
-0.09,0.38,0.93,0.21,-2.73,0.42
-0.09,0.38,0.93,-0.14,-2.94,0.42
-0.09,0.38,0.92,-0.28,-3.08,0.28
-0.08,0.38,0.93,-0.14,-3.36,0.14
-0.09,0.38,0.93,0.07,-3.36,0.07
-0.08,0.38,0.93,0.49,-3.43,-0.14
-0.08,0.38,0.93,0.84,-3.36,-0.21
-0.08,0.38,0.93,1.26,-3.29,-0.35
-0.08,0.38,0.93,1.19,-3.36,-0.21
-0.08,0.39,0.93,0.98,-3.64,-0.35
-0.08,0.39,0.92,0.63,-3.71,-0.21
-0.08,0.39,0.92,0.35,-3.64,-0.14
-0.08,0.39,0.92,0.14,-3.57,0
-0.08,0.39,0.92,0.35,-3.57,0.14
-0.08,0.39,0.92,0.42,-3.01,0.14
-0.08,0.39,0.92,0.63,-2.87,0.14
-0.08,0.4,0.92,0.91,-2.73,0.21
-0.08,0.4,0.92,1.12,-2.73,0
-0.08,0.4,0.92,1.05,-2.8,-0.07
-0.08,0.4,0.92,0.77,-2.66,0
-0.08,0.4,0.92,0.77,-2.73,0.07
-0.08,0.41,0.92,0.63,-2.73,0.14
-0.09,0.4,0.92,0.56,-2.66,0.21
-0.09,0.4,0.92,0.49,-2.73,0.35
-0.09,0.4,0.92,0,-2.73,0.49
-0.09,0.4,0.92,-0.42,-2.8,0.7
-0.09,0.4,0.92,-0.63,-2.94,0.84
-0.09,0.4,0.92,-0.77,-2.87,0.91
-0.09,0.4,0.92,-0.77,-2.8,0.84
-0.09,0.39,0.92,-0.63,-2.59,0.77
-0.08,0.39,0.92,-0.35,-2.66,0.91
-0.08,0.4,0.92,-0.07,-2.73,0.91
-0.08,0.4,0.92,-0.14,-2.8,0.84
-0.09,0.4,0.92,-0.49,-2.8,0.84
-0.09,0.39,0.93,-1.05,-2.87,0.84
-0.08,0.39,0.92,-1.33,-3.08,0.91
-0.08,0.39,0.92,-1.19,-3.08,0.84
-0.08,0.38,0.93,-0.91,-3.15,0.91
-0.08,0.38,0.92,-0.56,-3.22,0.84
-0.08,0.38,0.92,0,-2.8,0.7
-0.08,0.38,0.92,0.28,-2.73,0.63
-0.08,0.39,0.92,0.35,-2.8,0.77
-0.08,0.39,0.92,0.07,-2.59,0.49
-0.08,0.39,0.92,-0.07,-2.87,0.49
-0.08,0.39,0.92,-0.28,-2.87,0.49
-0.08,0.39,0.92,-0.42,-3.36,0.42
-0.08,0.39,0.93,-0.28,-3.22,0.28
-0.08,0.39,0.93,-0.14,-3.15,0.14
-0.08,0.38,0.93,-0.28,-2.94,0.07
-0.08,0.38,0.93,-0.35,-3.01,0.07
-0.09,0.38,0.93,-0.49,-3.22,-0.07
-0.08,0.38,0.92,-0.42,-3.36,-0.07
-0.08,0.38,0.92,-0.35,-3.08,-0.07
-0.08,0.38,0.93,-0.14,-3.29,0
-0.08,0.39,0.92,0,-3.36,0.07
-0.08,0.39,0.92,-0.21,-3.5,-0.14
-0.08,0.39,0.93,-0.21,-3.57,-0.07
-0.08,0.39,0.93,-0.21,-3.5,-0.07
-0.08,0.39,0.92,0.21,-3.22,-0.14
-0.08,0.4,0.92,0.56,-3.08,-0.14
-0.08,0.39,0.92,0.7,-3.01,-0.35
-0.08,0.4,0.92,0.77,-2.94,0.14
-0.08,0.39,0.92,0.91,-2.94,0.28
-0.08,0.39,0.92,0.77,-2.94,0.21
-0.08,0.39,0.92,0.84,-2.73,0.42
-0.08,0.39,0.92,0.91,-2.73,0.49
-0.08,0.39,0.92,0.77,-2.8,0.63
-0.08,0.39,0.92,0.63,-2.52,0.56
-0.08,0.39,0.92,0.07,-2.73,0.56
-0.08,0.4,0.92,-0.28,-2.94,0.63
-0.09,0.39,0.92,-0.77,-3.22,0.7
-0.09,0.39,0.92,-0.84,-3.29,0.7
-0.08,0.39,0.92,-0.63,-3.15,0.56
-0.08,0.39,0.93,0.07,-3.01,0.7
-0.08,0.39,0.93,0.21,-2.66,0.42
-0.08,0.39,0.93,0.35,-2.59,0.35
-0.08,0.39,0.93,0.28,-2.59,0.42
-0.08,0.39,0.92,-17.92,-2.66,0.35
-0.08,0.39,0.92,-0.35,-2.87,0.21
-0.08,0.38,0.92,-0.28,-3.08,0.21
-0.08,0.39,0.92,-0.21,-3.08,0.21
-0.08,0.39,0.92,-0.14,-2.94,0.14
-0.08,0.39,0.92,0,-2.87,0.07
-0.08,0.39,0.92,-0.28,-2.8,0
-0.08,0.39,0.92,-0.35,-2.87,-0.07
-0.08,0.39,0.92,-0.77,-3.01,0
-0.08,0.39,0.92,-0.84,-3.15,0
-0.08,0.39,0.92,-0.77,-3.22,0.14
-0.09,0.39,0.92,-0.56,-3.01,0.21
-0.09,0.39,0.92,-0.42,-3.22,0.42
-0.08,0.39,0.92,-0.7,-3.22,0.35
-0.09,0.39,0.92,-1.05,-3.29,0.42
-0.08,0.39,0.92,-0.91,-3.22,0.49
-0.08,0.39,0.93,-0.84,-3.08,0.56
-0.08,0.38,0.92,-0.21,-2.59,0.63
-0.08,0.38,0.92,0.49,-2.24,0.56
-0.08,0.38,0.93,1.19,-2.1,0.77
-0.08,0.38,0.93,1.68,-1.96,0.91
-0.08,0.39,0.92,1.47,-1.96,0.98
-0.08,0.39,0.92,0.91,-2.66,1.19
-0.08,0.39,0.92,0.14,-2.94,1.33
-0.08,0.39,0.92,-0.56,-2.8,1.26
-0.08,0.39,0.92,-0.7,-2.94,1.12
-0.08,0.39,0.92,-0.49,-2.94,0.84
-0.07,0.38,0.92,-0.14,-2.73,0.7
-0.07,0.38,0.92,0.77,-2.31,0.49
-0.08,0.38,0.92,1.33,-2.03,0.35
-0.08,0.39,0.92,2.03,-1.89,0.21
-0.08,0.39,0.93,2.45,-1.89,0.14
-0.09,0.38,0.93,2.45,-1.82,0.21
-0.09,0.38,0.93,2.24,-2.24,0.28
-0.09,0.38,0.93,1.89,-2.24,0.35
-0.09,0.38,0.93,1.54,-2.66,0.35
-0.09,0.38,0.93,1.26,-2.94,0.14
-0.09,0.38,0.93,0.84,-3.22,0
-0.11,0.41,0.92,-0.42,-4.34,-0.21
-0.09,0.4,0.92,-1.96,-4.83,-0.42
-0.08,0.39,0.92,-2.66,-5.11,-0.14
-0.08,0.39,0.92,-1.68,-4.76,-0.35
-0.07,0.39,0.92,0.35,-3.99,-0.63
-0.07,0.39,0.92,2.45,-3.08,-0.56
-0.07,0.4,0.92,4.13,-2.17,-0.77
-0.08,0.41,0.92,5.04,-1.47,-0.7
-0.08,0.41,0.92,4.9,-1.75,-0.77
-0.08,0.42,0.92,3.57,-2.45,-0.49
-0.09,0.43,0.91,1.26,-3.22,-0.49
-0.09,0.43,0.91,-1.05,-3.5,-0.14
-0.09,0.42,0.91,-2.87,-4.41,-0.07
-0.08,0.42,0.9,-3.85,-4.9,0.14
-0.08,0.42,0.9,-4.06,-4.9,0.21
-0.07,0.41,0.91,-4.06,-4.27,0.35
-0.07,0.41,0.91,-3.57,-3.99,0.42
-0.07,0.4,0.92,-3.22,-3.36,0.7
-0.07,0.4,0.92,-3.08,-2.1,0.77
-0.08,0.39,0.92,-2.73,-1.89,1.05
-0.08,0.39,0.93,-2.31,-2.03,1.4
-0.09,0.38,0.93,-2.03,-1.89,1.54
-0.09,0.38,0.93,-1.4,-2.17,1.75
-0.09,0.38,0.93,-0.77,-2.24,1.68
-0.09,0.38,0.93,-0.63,-2.45,1.75
-0.09,0.38,0.93,-0.63,-2.38,1.54
-0.09,0.38,0.93,-0.56,-2.59,1.12
-0.09,0.38,0.93,-0.7,-2.73,0.91
-0.09,0.37,0.93,-0.63,-2.66,0.84
-0.08,0.37,0.93,-0.28,-2.73,0.56
-0.09,0.37,0.93,0,-2.8,0.56
-0.09,0.37,0.93,-0.14,-3.01,0.42
-0.09,0.37,0.93,-0.21,-2.94,0.42
-0.09,0.37,0.93,-0.28,-3.22,0.49
-0.09,0.37,0.93,-0.42,-3.36,0.35
-0.08,0.38,0.93,-0.56,-3.29,0.35
-0.08,0.38,0.93,-0.42,-3.43,0.14
-0.08,0.38,0.93,0.07,-3.5,0.14
-0.08,0.38,0.93,0.21,-3.43,0
-0.08,0.38,0.93,0.49,-3.43,0
-0.08,0.38,0.93,0.56,-3.57,0.07
-0.08,0.38,0.92,0.63,-3.57,0.21
-0.08,0.38,0.92,0.77,-3.5,0.14
-0.08,0.39,0.92,0.77,-3.29,0.35
-0.08,0.39,0.92,0.77,-3.08,0.49
-0.08,0.39,0.92,0.7,-2.87,0.14
-0.08,0.39,0.92,0.77,-2.94,-0.07
-0.08,0.39,0.92,0.77,-2.94,-0.21
-0.08,0.4,0.92,0.7,-3.08,-0.21
-0.08,0.4,0.92,0.84,-3.15,-0.07
-0.08,0.4,0.92,0.98,-3.08,-0.42
-0.08,0.4,0.93,1.19,-3.15,0
-0.08,0.4,0.93,1.4,-3.08,0.07
-0.08,0.41,0.93,1.26,-2.8,-0.14
-0.08,0.4,0.92,1.19,-2.87,0.14
-0.08,0.4,0.92,0.98,-2.66,0
-0.09,0.4,0.92,0.84,-2.8,0.14
-0.08,0.4,0.92,0.63,-2.73,0.42
-0.08,0.4,0.92,0.35,-2.66,0.63
-0.08,0.4,0.91,0.14,-2.59,0.7
-0.08,0.4,0.92,-0.28,-2.59,0.91
-0.08,0.4,0.92,-0.63,-2.73,0.77
-0.08,0.4,0.92,-0.91,-2.73,0.63
-0.08,0.4,0.92,-1.12,-2.66,0.63
-0.08,0.39,0.92,-0.84,-2.73,0.49
-0.08,0.39,0.93,-0.7,-2.8,0.42
-0.09,0.39,0.93,-0.56,-2.87,0.42
-0.09,0.39,0.93,-0.49,-2.73,0.42
-0.09,0.39,0.93,-0.49,-3.01,0.49
-0.08,0.39,0.93,-0.7,-3.01,0.56
-0.08,0.39,0.93,-0.91,-3.01,0.63
-0.08,0.39,0.92,-1.68,-3.43,0.63
-0.08,0.38,0.92,-1.75,-3.5,0.7
-0.08,0.37,0.92,-1.05,-3.01,0.77
-0.07,0.37,0.93,0.21,-2.66,0.56
-0.07,0.38,0.93,1.96,-1.82,0.49
-0.08,0.38,0.92,2.66,-1.47,0.28
-0.09,0.39,0.93,2.31,-1.82,0.35
-0.09,0.39,0.92,0.84,-2.31,0.28
-0.09,0.39,0.93,-0.49,-2.94,0.49
-0.09,0.39,0.93,-1.75,-3.57,0.35
-0.09,0.38,0.93,-2.17,-3.92,0.42
-0.08,0.38,0.93,-1.68,-3.78,0.28
-0.08,0.38,0.92,-0.77,-3.5,0.21
-0.08,0.38,0.92,-0.07,-3.36,-0.28
-0.07,0.37,0.92,-0.49,-3.92,0
-0.07,0.37,0.93,-0.35,-3.08,0.14
-0.08,0.38,0.93,0.63,-2.66,0.07
-0.07,0.39,0.93,2.03,-2.38,-0.07
-0.08,0.39,0.93,2.8,-2.1,-0.21
-0.09,0.39,0.92,2.73,-1.89,-0.14
-0.09,0.39,0.93,2.03,-2.52,0.07
-0.09,0.39,0.92,1.12,-2.73,0.21
-0.09,0.4,0.92,0,-3.22,0.42
-0.09,0.4,0.92,-1.05,-3.36,0.49
-0.08,0.4,0.92,-1.54,-3.43,0.49
-0.08,0.39,0.92,-1.54,-3.36,0.42
-0.08,0.39,0.92,-1.47,-3.22,0.14
-0.08,0.39,0.92,-1.4,-3.36,0.28
-0.08,0.39,0.92,-1.26,-3.29,0.28
-0.08,0.39,0.92,-1.05,-3.15,0.21
-0.08,0.39,0.93,-0.63,-2.94,0.35
-0.08,0.39,0.93,-0.35,-2.87,0.35
-0.09,0.39,0.93,-0.14,-3.15,0.49
-0.08,0.39,0.93,-0.14,-3.01,0.35
-0.08,0.39,0.93,0,-3.22,0.7
-0.08,0.39,0.93,0.07,-2.94,0.63
-0.08,0.39,0.93,0.28,-2.87,0.56
-0.08,0.39,0.92,0.35,-2.8,0.77
-0.08,0.39,0.92,0.42,-2.94,0.49
-0.08,0.39,0.92,0.21,-2.8,0.63
-0.08,0.39,0.92,0,-2.87,0.49
-0.08,0.39,0.92,-0.07,-3.01,0.42
-0.08,0.39,0.92,0,-2.87,0.35
-0.08,0.38,0.92,-0.14,-2.73,0.42
-0.08,0.38,0.92,-0.28,-2.87,0.42
-0.08,0.38,0.92,-0.7,-2.87,0.49
-0.08,0.38,0.93,-0.84,-3.15,0.42
-0.08,0.39,0.93,-0.91,-3.36,0.56
-0.08,0.38,0.93,-1.19,-3.22,0.49
-0.08,0.39,0.93,-0.91,-3.36,0.42
-0.08,0.39,0.92,-0.7,-3.43,0.42
-0.08,0.39,0.92,-0.21,-3.22,0.21
-0.08,0.39,0.92,0.35,-3.01,0.07
-0.08,0.39,0.92,0.98,-2.94,0.07
-0.08,0.39,0.92,1.19,-2.45,0
-0.08,0.39,0.92,1.33,-2.66,0.14
-0.09,0.39,0.93,1.05,-2.66,0.14
-0.09,0.39,0.92,0.7,-2.73,0.28
-0.09,0.39,0.92,0.07,-2.87,0.56
-0.08,0.39,0.92,-0.7,-3.29,0.63
-0.08,0.39,0.92,-1.05,-3.29,0.35
-0.08,0.39,0.92,-0.7,-3.29,0.56
-0.08,0.39,0.92,-0.14,-2.8,0.42
-0.08,0.39,0.92,0.56,-2.8,0.42
-0.08,0.39,0.92,0.84,-2.59,0.35
-0.08,0.39,0.93,0.77,-2.52,0.49
-0.08,0.39,0.92,0.63,-2.45,0.63
-0.08,0.39,0.93,0.21,-2.66,0.77
-0.08,0.39,0.92,-0.14,-2.8,0.77
-0.08,0.38,0.92,-0.35,-3.08,0.77
-0.08,0.39,0.92,-0.21,-3.01,0.84
-0.08,0.39,0.92,0.14,-3.08,0.63
-0.08,0.39,0.92,0.49,-2.87,0.42
-0.08,0.39,0.92,0.56,-2.73,0.28
-0.08,0.39,0.92,0.63,-2.66,0.28
-0.08,0.39,0.92,0.63,-2.73,0.28
-0.08,0.39,0.93,0.42,-2.73,0.07
-0.08,0.39,0.93,0.35,-3.01,0.14
-0.08,0.39,0.93,0.21,-2.94,0.28
-0.08,0.39,0.93,0.07,-3.08,0.21
-0.08,0.39,0.93,-0.07,-3.08,0.21
-0.08,0.39,0.93,-0.35,-3.08,0.28
-0.08,0.39,0.93,-0.42,-3.22,0.28
-0.08,0.39,0.92,-0.35,-3.15,0.28
-0.08,0.39,0.92,-0.07,-3.15,0.28
-0.08,0.39,0.92,0.28,-3.01,0.49
-0.08,0.39,0.92,0.56,-2.66,0.42
-0.08,0.39,0.92,0.77,-2.73,0.63
-0.08,0.39,0.92,0.63,-2.59,0.56
-0.08,0.39,0.93,0.56,-2.8,0.56
-0.08,0.39,0.93,0.28,-2.73,0.56
-0.08,0.39,0.92,0.14,-2.87,0.42
-0.08,0.39,0.93,0.07,-2.87,0.35
-0.08,0.39,0.92,-0.14,-2.94,0.35
-0.08,0.39,0.92,0.07,-2.94,0.28
-0.08,0.39,0.92,0,-3.15,0.35
-0.08,0.39,0.92,0.07,-3.08,0.35
-0.08,0.39,0.92,0.35,-3.15,0.49
-0.08,0.39,0.92,0.42,-3.08,0.42
-0.08,0.39,0.93,0.49,-3.15,0.28
-0.08,0.4,0.93,0.21,-3.01,0.28
-0.08,0.39,0.92,-0.21,-3.08,0.28
-0.08,0.39,0.92,-0.63,-3.08,0.35
-0.08,0.39,0.92,-0.98,-3.01,0.28
-0.08,0.39,0.92,-0.63,-3.29,0.49
-0.08,0.38,0.92,-0.35,-3.08,0.42
-0.08,0.38,0.92,0.14,-2.59,0.49
-0.08,0.38,0.92,0.49,-2.52,0.49
-0.08,0.39,0.92,0.49,-2.31,0.49
-0.08,0.39,0.93,0.56,-2.38,0.49
-0.08,0.39,0.92,0.56,-2.52,0.49
-0.08,0.39,0.93,0.28,-2.8,0.42
-0.08,0.39,0.92,-0.14,-2.87,0.35
-0.09,0.39,0.92,-0.49,-3.08,0.28
-0.09,0.39,0.92,-0.7,-3.57,0.42
-0.09,0.39,0.92,-1.12,-3.5,0.28
-0.08,0.39,0.92,-1.19,-3.36,0.21
-0.08,0.38,0.93,-0.98,-3.22,0.35
-0.08,0.38,0.93,-0.42,-3.22,0.07
-0.08,0.38,0.93,0.07,-2.8,0.28
-0.08,0.39,0.93,0.49,-2.52,0.28
-0.08,0.39,0.93,0.7,-2.59,0.14
-0.08,0.39,0.93,0.77,-2.66,0.07
-0.08,0.39,0.93,0.42,-2.87,0.21
-0.08,0.39,0.92,0.35,-3.22,0.21
-0.08,0.39,0.92,0.07,-3.08,0.49
-0.08,0.39,0.92,-0.07,-3.36,0.49
-0.08,0.39,0.92,-0.21,-3.01,0.49
-0.08,0.39,0.92,-0.21,-3.01,0.49
-0.08,0.38,0.92,-0.14,-2.87,0.49
-0.08,0.39,0.92,0.07,-2.94,0.56
-0.08,0.39,0.92,0.42,-2.73,0.49
-0.08,0.39,0.92,0.7,-2.87,0.28
-0.08,0.39,0.93,0.63,-2.94,0.35
-0.08,0.39,0.93,0.49,-2.87,0.21
-0.08,0.39,0.93,0.07,-2.94,0.21
-0.08,0.39,0.93,-0.28,-3.15,0.14
-0.08,0.39,0.92,-0.42,-3.08,0.07
-0.08,0.39,0.92,-0.35,-3.15,0.35
-0.08,0.39,0.92,-0.07,-2.94,0.35
-0.08,0.39,0.92,0.28,-2.66,0.28
-0.08,0.39,0.92,0.77,-2.87,0.42
-0.08,0.39,0.92,0.84,-2.45,0.42
-0.08,0.39,0.92,0.91,-2.59,0.42
-0.08,0.39,0.93,0.77,-2.52,0.42
-0.08,0.39,0.93,0.49,-2.73,0.49
-0.09,0.39,0.92,0,-3.01,0.42
-0.08,0.39,0.92,-0.56,-3.36,0.56
-0.08,0.39,0.92,-1.12,-3.5,0.42
-0.08,0.39,0.92,-1.4,-3.64,0.63
-0.08,0.39,0.92,-1.61,-3.78,0.56
-0.08,0.38,0.93,-1.05,-3.43,0.49
-0.08,0.38,0.93,0.28,-2.87,0.49
-0.08,0.38,0.93,1.68,-2.1,0.42
-0.08,0.39,0.93,2.94,-1.54,0.35
-0.08,0.39,0.93,3.01,-1.47,0.28
-0.08,0.39,0.92,2.38,-1.89,0.35
-0.09,0.39,0.92,1.19,-2.52,0.56
-0.09,0.39,0.92,-0.28,-2.94,0.84
-0.08,0.39,0.92,-1.54,-3.57,0.7
-0.08,0.39,0.92,-2.38,-3.99,0.77
-0.11,0.41,0.9,-4.06,-4.76,0.28
-0.06,0.38,0.92,-3.78,-4.06,0.35
-0.08,0.39,0.92,-1.89,-3.15,0.28
-0.07,0.39,0.93,0.63,-2.45,-0.07
-0.07,0.39,0.93,1.96,-2.1,-0.07
-0.08,0.39,0.93,2.38,-1.89,-0.42
-0.09,0.39,0.93,1.82,-1.96,-0.21
-0.09,0.39,0.93,1.26,-2.66,0.07
-0.09,0.39,0.93,0.42,-2.8,0.28
-0.09,0.4,0.93,-0.98,-3.43,0.56
-0.09,0.39,0.93,-1.89,-3.71,0.77
-0.09,0.39,0.92,-2.31,-3.85,0.98
-0.08,0.39,0.92,-2.45,-3.85,0.77
-0.08,0.39,0.92,-2.31,-3.71,0.84
-0.08,0.38,0.92,-1.96,-3.5,0.84
-0.08,0.38,0.92,-1.4,-3.43,0.56
-0.08,0.38,0.92,-1.47,-3.15,0.42
-0.08,0.39,0.92,-1.4,-3.08,0.42
-0.08,0.39,0.93,-1.4,-3.57,0.42
-0.08,0.39,0.93,-1.82,-3.5,0.49
-0.08,0.39,0.94,-1.96,-3.64,0.56
-0.08,0.39,0.93,-2.59,-3.85,0.56
-0.06,0.38,0.94,-2.59,-3.29,0.63
-0.08,0.39,0.93,-2.52,-3.99,0.63
-0.08,0.38,0.92,-2.8,-3.92,0.77
-0.08,0.38,0.92,-1.96,-3.85,0.56
-0.07,0.38,0.92,-1.12,-3.71,0.49
-0.07,0.38,0.92,-0.21,-3.01,0.49
-0.08,0.38,0.92,0.42,-2.59,0.42
-0.08,0.38,0.92,0.42,-2.59,0.42
-0.08,0.36,0.93,0.35,-2.45,0.63
-0.1,0.39,0.92,-0.35,-2.8,0.21
-0.08,0.39,0.93,-1.68,-3.29,0.28
-0.09,0.39,0.93,-2.87,-3.85,0.49
-0.09,0.38,0.93,-3.71,-4.13,0.49
-0.08,0.38,0.93,-3.85,-4.48,0.56
-0.08,0.38,0.93,-3.57,-4.34,0.98
-0.08,0.38,0.93,-2.59,-3.5,1.19
-0.07,0.37,0.93,-1.61,-3.36,1.19
-0.06,0.38,0.93,0.56,-2.52,1.05
-0.07,0.38,0.93,2.38,-1.89,0.91
-0.07,0.38,0.92,3.78,-1.47,0.7
-0.07,0.38,0.92,4.2,-1.54,0.84
-0.08,0.39,0.92,3.71,-1.4,0.7
-0.08,0.39,0.92,2.87,-1.82,0.7
-0.09,0.39,0.92,1.61,-2.38,0.63
-0.09,0.39,0.93,0.35,-2.66,0.63
-0.09,0.39,0.93,-0.91,-3.29,0.56
-0.08,0.39,0.93,-1.61,-3.5,0.28
-0.08,0.39,0.93,-1.68,-3.57,0.14
-0.08,0.38,0.93,-1.4,-3.71,0.14
-0.08,0.38,0.93,-0.91,-3.43,0
-0.08,0.39,0.93,-0.56,-3.15,-0.14
-0.08,0.38,0.93,-0.42,-3.01,0
-0.08,0.38,0.93,-0.63,-2.8,0
-0.08,0.38,0.93,-0.77,-2.94,0.28
-0.08,0.38,0.93,-1.12,-2.8,0.28
-0.08,0.38,0.93,-1.47,-3.01,0.35
-0.08,0.37,0.93,-1.82,-3.08,0.63
-0.08,0.37,0.92,-2.1,-3.08,0.63
-0.08,0.37,0.93,-1.82,-3.29,0.7
-0.07,0.37,0.93,-1.4,-3.29,0.7
-0.08,0.37,0.93,-0.98,-3.15,0.7
-0.08,0.37,0.93,-0.42,-3.15,0.63
-0.08,0.37,0.94,0.28,-3.08,0.35
-0.08,0.38,0.94,0.7,-2.94,0.42
-0.08,0.38,0.93,1.12,-3.01,0.56
-0.08,0.38,0.93,1.4,-2.94,0.35
-0.08,0.38,0.93,1.75,-3.01,0.42
-0.08,0.38,0.93,1.82,-3.08,0.28
-0.08,0.38,0.93,1.68,-2.87,0.42
-0.08,0.38,0.93,1.54,-2.94,0.35
-0.08,0.38,0.92,1.05,-2.59,0.42
-0.08,0.38,0.92,0.63,-2.87,0.56
-0.08,0.38,0.92,0.21,-2.73,0.49
-0.08,0.38,0.92,-0.07,-2.87,0.49
-0.08,0.38,0.92,-0.35,-3.15,0.56
-0.08,0.38,0.93,-0.7,-2.87,0.63
-0.08,0.38,0.93,-0.7,-3.01,0.56
-0.08,0.38,0.93,-0.49,-2.94,0.56
-0.08,0.38,0.93,-0.28,-2.87,0.35
-0.08,0.38,0.93,-0.07,-2.8,0.28
-0.08,0.38,0.93,0.28,-2.94,0.21
-0.08,0.38,0.93,0.56,-2.94,0.07
-0.08,0.38,0.93,0.84,-2.94,-0.07
-0.08,0.38,0.93,0.91,-2.8,0
-0.08,0.38,0.93,0.91,-3.15,0.07
-0.08,0.38,0.92,0.7,-3.08,-0.07
-0.09,0.39,0.92,0.49,-3.15,0.14
-0.09,0.39,0.93,-0.07,-3.22,0.14
-0.09,0.39,0.93,-0.42,-3.36,0.21
-0.08,0.39,0.93,-0.84,-3.43,0.28
-0.08,0.39,0.93,-1.12,-3.43,0.35
-0.08,0.38,0.93,-1.26,-3.36,0.56
-0.08,0.39,0.92,-1.33,-3.71,0.7
-0.08,0.38,0.92,-1.19,-3.5,0.63
-0.07,0.38,0.93,-0.84,-3.43,0.91
-0.07,0.39,0.93,-0.56,-3.22,0.63
-0.07,0.38,0.93,-0.28,-3.01,0.91
-0.07,0.38,0.93,-0.07,-3.01,0.84
-0.07,0.38,0.92,0.21,-2.8,0.98
-0.07,0.39,0.93,0.28,-2.59,0.84
-0.07,0.38,0.93,0.28,-2.8,0.91
-0.07,0.38,0.93,0,-2.73,0.91
-0.08,0.38,0.93,-0.21,-2.66,0.7
-0.08,0.38,0.93,-0.28,-2.52,0.7
-0.08,0.38,0.93,-0.42,-2.87,0.63
-0.08,0.38,0.93,-0.49,-2.8,0.56
-0.08,0.38,0.93,-0.49,-3.08,0.56
-0.08,0.38,0.93,-0.7,-3.08,0.49
-0.08,0.38,0.93,-0.91,-3.15,0.77
-0.08,0.38,0.93,-1.12,-3.15,0.84
-0.08,0.38,0.93,-1.4,-3.15,0.98
-0.08,0.38,0.93,-1.26,-3.22,0.84
-0.08,0.38,0.93,-1.12,-3.08,0.77
-0.08,0.37,0.93,-0.84,-2.94,0.77
-0.08,0.37,0.93,-0.49,-3.15,0.98
-0.08,0.37,0.93,-0.21,-3.01,0.77
-0.08,0.37,0.93,-0.07,-2.94,0.56
-0.08,0.37,0.93,0.07,-3.01,0.63
-0.07,0.37,0.93,0.28,-2.94,0.63
-0.07,0.38,0.93,0.28,-3.01,0.63
-0.07,0.38,0.93,0.21,-2.87,0.42
-0.07,0.37,0.93,0.21,-2.94,0.42
-0.07,0.38,0.93,0.14,-2.8,0.28
-0.08,0.37,0.93,0,-3.36,0.42
-0.07,0.37,0.93,0.28,-3.08,0.49
-0.08,0.38,0.93,0.56,-2.8,0.49
-0.08,0.38,0.93,0.7,-2.87,0.42
-0.08,0.38,0.93,0.49,-2.73,0.28
-0.08,0.38,0.93,0.21,-2.8,0.35
-0.08,0.38,0.93,0.14,-2.73,0.28
-0.08,0.38,0.93,0.21,-2.87,0.28
-0.08,0.38,0.93,0.21,-2.73,0.28
-0.08,0.37,0.93,0.42,-2.73,0.35
-0.08,0.38,0.93,0.7,-2.52,0.63
-0.08,0.38,0.93,1.12,-2.31,0.56
-0.08,0.38,0.93,1.19,-2.52,0.63
-0.08,0.38,0.93,1.12,-2.52,0.63
-0.08,0.38,0.93,0.77,-2.52,0.7
-0.08,0.38,0.93,0.63,-2.73,0.56
-0.08,0.38,0.93,0.7,-2.73,0.63
-0.08,0.38,0.93,0.7,-2.66,0.42
-0.08,0.38,0.93,0.84,-2.73,0.49
-0.08,0.38,0.93,0.91,-2.73,0.77
-0.08,0.38,0.93,0.56,-2.94,0.56
-0.08,0.38,0.93,0.14,-2.94,0.56
-0.08,0.38,0.93,0.07,-2.94,0.49
-0.08,0.38,0.92,0.07,-3.08,0.35
-0.08,0.38,0.93,-0.07,-3.08,0.35
-0.08,0.38,0.93,0.21,-3.01,0.14
-0.08,0.39,0.93,0.21,-3.01,0.42
-0.07,0.39,0.93,-0.07,-3.22,0.42
-0.08,0.39,0.93,-0.42,-3.29,0.28
-0.07,0.39,0.92,-0.77,-2.87,0.28
-0.07,0.38,0.92,-0.84,-3.29,0.35
-0.07,0.38,0.93,-1.19,-3.36,0.35
-0.08,0.38,0.92,-1.19,-3.29,0.35
-0.07,0.38,0.92,-0.91,-3.43,0.28
-0.07,0.38,0.93,-0.42,-3.22,0.42
-0.07,0.38,0.93,0.07,-2.66,0.49
-0.07,0.38,0.93,0.49,-2.59,0.49
-0.07,0.38,0.93,0.56,-2.31,0.35
-0.08,0.38,0.93,0.49,-2.38,0.42
-0.08,0.38,0.93,0.07,-2.73,0.63
-0.08,0.38,0.93,-0.56,-2.87,0.77
-0.08,0.38,0.93,-1.19,-3.29,0.77
-0.08,0.38,0.93,-1.26,-3.36,0.84
-0.09,0.39,0.92,-1.75,-3.64,0.84
-0.08,0.38,0.93,-1.54,-3.36,0.91
-0.07,0.37,0.93,-0.21,-2.87,0.7
-0.07,0.38,0.93,0.35,-2.59,0.42
-0.07,0.37,0.93,0.21,-2.52,0.35
-0.08,0.37,0.93,0,-2.73,0.42
-0.08,0.38,0.93,-0.07,-2.94,0.42
-0.08,0.38,0.94,0.21,-2.94,0.49
-0.08,0.37,0.94,0.49,-3.01,0.49
-0.07,0.38,0.93,0.56,-3.01,0.14
-0.07,0.38,0.93,0.21,-3.08,0.21
-0.07,0.38,0.93,-17.78,-3.01,0.35
-0.07,0.38,0.92,-0.28,-3.36,0.21
-0.07,0.38,0.92,-0.7,-3.22,0.21
-0.07,0.37,0.92,-0.84,-3.08,0.28
-0.07,0.37,0.92,-0.56,-3.01,0.28
-0.08,0.37,0.93,-0.35,-2.94,0.21
-0.08,0.38,0.93,0.07,-2.52,0.28
-0.08,0.38,0.93,0.42,-2.38,-0.07
-0.08,0.38,0.93,0.49,-2.59,0
-0.08,0.38,0.93,0.28,-2.73,0.14
-0.08,0.38,0.94,0.14,-2.8,0.21
-0.08,0.38,0.93,-0.28,-3.15,0.07
-0.08,0.38,0.93,-0.42,-3.36,0.14
-0.08,0.38,0.93,-0.49,-3.29,0.28
-0.08,0.38,0.93,-0.35,-3.22,0.35
-0.07,0.38,0.92,-0.21,-3.29,0.42
-0.08,0.38,0.92,0.07,-3.08,0.56
-0.07,0.38,0.92,0.28,-2.73,0.21
-0.07,0.38,0.92,0.7,-2.87,0.56
-0.07,0.38,0.92,0.91,-2.59,0.35
-0.08,0.38,0.93,0.84,-2.52,0.49
-0.08,0.38,0.93,0.63,-2.8,0.63
-0.08,0.38,0.93,0.35,-2.8,0.7
-0.08,0.38,0.93,0,-2.73,0.63
-0.08,0.38,0.93,-0.21,-3.08,0.63
-0.08,0.38,0.93,-0.49,-3.01,0.49
-0.08,0.38,0.93,-0.42,-3.15,0.49
-0.08,0.38,0.93,-0.21,-3.15,0.42
-0.08,0.38,0.93,0,-2.94,0.21
-0.08,0.38,0.93,0.21,-2.8,0.21
-0.08,0.38,0.93,0.49,-2.8,0.28
-0.08,0.38,0.92,0.49,-2.66,0.28
-0.08,0.38,0.93,0.56,-2.94,0.35
-0.08,0.38,0.93,0.21,-3.01,0.49
-0.08,0.38,0.93,-0.21,-3.22,0.35
-0.07,0.38,0.93,-0.63,-3.15,0.42
-0.08,0.38,0.93,-0.91,-3.15,0.42
-0.08,0.38,0.93,-0.7,-3.08,0.35
-0.08,0.38,0.93,-0.56,-2.94,0.35
-0.08,0.38,0.93,-0.21,-3.08,0.21
-0.08,0.38,0.93,-0.14,-2.94,0.21
-0.08,0.38,0.93,0.14,-2.94,0.35
-0.08,0.38,0.93,0.28,-2.87,0.28
-0.08,0.38,0.93,0.07,-3.01,0.42
-0.08,0.38,0.93,0,-2.94,0.28
-0.08,0.38,0.93,-0.28,-2.87,0.42
-0.08,0.38,0.93,-0.42,-2.94,0.49
-0.08,0.38,0.93,-0.35,-2.94,0.49
-0.07,0.38,0.93,-0.35,-2.94,0.42
-0.07,0.38,0.93,-0.35,-2.87,0.28
-0.07,0.38,0.93,-0.21,-2.87,0.49
-0.07,0.37,0.93,0,-2.87,0.56
-0.07,0.38,0.93,0.28,-2.94,0.35
-0.08,0.38,0.93,0.35,-2.94,0.42
-0.08,0.38,0.93,0.21,-2.94,0.07
-0.08,0.38,0.93,0,-2.66,0.21
-0.08,0.38,0.93,0,-3.08,0.28
-0.08,0.38,0.93,-0.14,-2.87,0.28
-0.08,0.37,0.93,-0.35,-3.08,0.28
-0.08,0.38,0.93,-0.21,-3.01,0.42
-0.08,0.38,0.93,-0.14,-2.8,0.35
-0.08,0.37,0.93,17.85,-3.22,0.49
-0.08,0.38,0.93,0.14,-2.94,0.56
-0.07,0.38,0.93,0.28,-2.8,0.63
-0.08,0.38,0.93,0.35,-3.01,0.7
-0.07,0.38,0.93,0.42,-2.94,0.42
-0.08,0.38,0.93,0.42,-2.94,0.42
-0.08,0.38,0.93,0.35,-2.87,0.49
-0.08,0.38,0.93,0.35,-3.01,0.42
-0.08,0.38,0.93,0.21,-2.94,0.35
-0.07,0.38,0.93,0.21,-2.8,0.28
-0.07,0.38,0.93,0.21,-2.87,0.21
-0.08,0.38,0.93,0.35,-2.87,0.28
-0.07,0.38,0.92,0.56,-2.87,0.21
-0.08,0.38,0.93,0.49,-2.87,0.21
-0.08,0.38,0.93,0.07,-2.8,0.28
-0.07,0.38,0.93,-0.07,-3.08,0.49
-0.07,0.38,0.93,-0.28,-2.94,0.56
-0.07,0.38,0.93,-0.56,-2.73,0.42
-0.08,0.38,0.93,-0.42,-2.87,0.49
-0.07,0.38,0.93,-0.21,-2.87,0.49
-0.08,0.38,0.93,-0.14,-2.94,0.35
-0.08,0.38,0.93,-0.07,-2.87,0.35
-0.08,0.38,0.93,-0.07,-2.94,0.28
-0.08,0.38,0.93,0,-2.87,0.21
-0.08,0.38,0.93,0.21,-3.08,0.21
-0.08,0.38,0.93,0.14,-3.01,0.14
-0.08,0.38,0.93,0.14,-3.01,0.21
-0.08,0.38,0.93,0.21,-3.15,0.21
-0.08,0.38,0.93,0,-3.08,0.35
-0.08,0.38,0.93,-0.07,-3.01,0.35
-0.08,0.38,0.93,-0.28,-3.01,0.49
-0.08,0.38,0.93,-0.21,-2.94,0.49
-0.08,0.38,0.93,-0.07,-2.94,0.63
-0.08,0.37,0.93,0.07,-2.87,0.7
-0.08,0.38,0.93,0.21,-2.87,0.63
-0.07,0.38,0.93,0.28,-2.87,0.63
-0.07,0.38,0.93,0.42,-2.94,0.63
-0.08,0.38,0.93,0.35,-3.08,0.63
-0.07,0.38,0.93,0.35,-2.8,0.35
-0.08,0.38,0.93,0.35,-3.01,0.42
-0.08,0.38,0.93,0.14,-3.15,0.35
-0.08,0.38,0.93,-0.21,-3.08,0.14
-0.07,0.38,0.93,-0.28,-3.08,0.14
-0.07,0.38,0.93,-0.35,-3.22,0.14
-0.07,0.38,0.93,-0.35,-3.15,0.35
-0.07,0.38,0.93,-0.21,-2.94,0.21
-0.08,0.38,0.93,-0.21,-2.8,0.42
-0.08,0.38,0.93,0.21,-2.94,0.35
-0.07,0.38,0.93,0.28,-2.73,0.35
-0.08,0.38,0.93,0.07,-2.8,0.35
-0.08,0.38,0.93,0,-2.66,0.42
-0.08,0.38,0.93,0.07,-2.8,0.56
-0.08,0.38,0.93,0,-2.73,0.42
-0.08,0.37,0.93,0.07,-2.87,0.49
-0.08,0.37,0.93,0.14,-2.59,0.49
-0.08,0.37,0.93,0.35,-2.8,0.56
-0.08,0.38,0.93,0.35,-2.8,0.49
-0.08,0.37,0.93,0.28,-2.87,0.63
-0.08,0.38,0.93,0.07,-3.01,0.56
-0.08,0.38,0.93,0,-2.94,0.49
-0.08,0.38,0.93,0,-3.15,0.49
-0.07,0.38,0.93,-0.07,-2.94,0.28
-0.08,0.38,0.93,-17.92,-3.15,0.21
-0.08,0.38,0.93,0,-3.01,0.35
-0.08,0.38,0.93,0.07,-2.87,0.21
-0.08,0.38,0.93,0.07,-3.08,0.35
-0.07,0.38,0.93,0.14,-3.01,0.28
-0.08,0.38,0.93,0.28,-3.08,0.42
-0.08,0.38,0.93,0.14,-3.01,0.49
-0.08,0.38,0.93,0.21,-2.73,0.42
-0.08,0.38,0.93,0.07,-2.94,0.56
-0.08,0.38,0.93,-0.07,-2.8,0.28
-0.08,0.38,0.93,-0.21,-3.15,0.28
-0.07,0.38,0.93,-0.28,-3.01,0.42
-0.07,0.38,0.93,-0.49,-2.94,0.14
-0.07,0.38,0.93,-0.42,-3.01,0.28
-0.07,0.38,0.93,-0.14,-3.08,0.35
-0.08,0.38,0.93,0,-2.8,0.07
-0.08,0.38,0.93,0.14,-2.87,0.14
-0.08,0.37,0.93,0.14,-3.08,0.21
-0.08,0.38,0.93,0,-3.22,0.21
-0.08,0.38,0.93,-0.07,-3.15,0.28
-0.08,0.38,0.93,-0.07,-2.94,0.35
-0.08,0.38,0.93,0.14,-2.66,0.35
-0.08,0.39,0.93,0.49,-2.24,0.7
-0.08,0.38,0.92,0.49,-1.96,0.63
-0.09,0.38,0.93,0.14,-2.17,0.77
-0.09,0.38,0.93,-0.56,-3.08,1.19
-0.08,0.38,0.94,-1.26,-3.57,1.4
-0.06,0.38,0.94,-2.45,-4.27,1.4
-0.05,0.37,0.94,-2.8,-4.06,1.12
-0.05,0.37,0.93,-2.24,-3.78,0.84
-0.05,0.36,0.93,-1.05,-3.5,0.35
-0.06,0.36,0.92,0.42,-3.01,0.14
-0.06,0.36,0.92,1.96,-2.66,-0.28
-0.06,0.37,0.92,2.59,-2.31,-0.49
-0.07,0.38,0.92,2.8,-2.1,-0.35
-0.07,0.38,0.92,2.17,-2.03,-0.21
-0.08,0.39,0.93,1.19,-2.24,0
-0.08,0.39,0.93,-0.14,-2.45,0.35
-0.09,0.39,0.93,-1.33,-2.66,0.63
-0.09,0.38,0.94,-2.03,-2.94,0.63
-0.08,0.37,0.94,-2.17,-2.94,0.63
-0.08,0.36,0.94,-1.61,-3.08,0.63
-0.08,0.36,0.94,-0.77,-2.8,0.35
-0.08,0.36,0.94,0,-2.66,0.35
-0.08,0.37,0.94,1.05,-2.59,0.28
-0.08,0.37,0.93,1.61,-2.59,0.21
-0.08,0.38,0.93,1.82,-3.01,0.21
-0.08,0.38,0.93,1.68,-2.94,-0.07
-0.08,0.39,0.93,1.26,-3.08,0
-0.08,0.39,0.92,0.84,-3.15,0.14
-0.08,0.39,0.92,0.28,-3.36,0.21
-0.08,0.39,0.92,-0.07,-3.08,0.14
-0.08,0.38,0.93,-0.14,-2.94,0.28
-0.08,0.38,0.93,-0.35,-3.08,0.35
-0.08,0.38,0.93,-0.28,-3.01,0.21
-0.08,0.37,0.93,-0.49,-3.08,0.35
-0.08,0.37,0.93,-0.56,-3.22,0.35
-0.07,0.37,0.93,-0.77,-2.94,0.28
-0.07,0.37,0.93,-0.77,-3.08,0.35
-0.07,0.37,0.93,-0.63,-3.08,0.28
-0.08,0.37,0.93,-0.42,-3.29,0.21
-0.08,0.37,0.93,-0.28,-3.08,0.56
-0.08,0.37,0.93,0,-3.08,0.63
-0.08,0.35,0.94,1.82,-3.29,0.56
-0.08,0.38,0.91,-0.28,-3.78,0.7
-0.09,0.38,0.93,-1.05,-3.08,0.84
-0.08,0.38,0.93,-0.63,-3.01,0.84
-0.08,0.38,0.93,-0.56,-3.22,0.49
-0.07,0.38,0.93,-0.42,-3.08,0.49
-0.07,0.38,0.93,0.07,-3.08,0.35
-0.07,0.38,0.93,0.49,-2.8,0.14
-0.06,0.38,0.93,0.98,-2.73,0.28
-0.07,0.37,0.93,1.47,-2.52,0.21
-0.07,0.37,0.92,2.03,-2.66,0.28
-0.07,0.37,0.93,1.96,-2.24,0.42
-0.07,0.38,0.92,1.75,-2.17,0.28
-0.07,0.38,0.92,1.47,-2.1,0.63
-0.07,0.38,0.92,0.84,-2.1,0.63
-0.08,0.38,0.92,0.42,-2.1,0.7
-0.08,0.37,0.93,0,-1.96,0.84
-0.08,0.37,0.93,-0.14,-2.17,0.7
-0.08,0.37,0.93,-0.21,-2.24,0.42
-0.09,0.37,0.93,17.85,-2.38,0.42
-0.09,0.38,0.94,0.14,-2.52,0.07
-0.09,0.37,0.94,0.21,-2.87,0.28
-0.09,0.38,0.94,0.07,-2.94,0.14
-0.09,0.38,0.94,0,-3.01,-0.14
-0.09,0.38,0.94,-0.07,-3.36,-0.14
-0.08,0.38,0.94,0,-3.29,-0.35
-0.08,0.38,0.93,0.21,-3.57,-0.07
-0.08,0.38,0.93,0.56,-3.64,-0.21
-0.08,0.38,0.93,0.77,-3.43,-0.28
-0.08,0.38,0.92,0.84,-3.36,-0.14
-0.08,0.38,0.92,0.84,-3.43,0
-0.08,0.38,0.92,0.63,-3.29,0.14
-0.08,0.38,0.92,0.49,-3.29,0.35
-0.08,0.39,0.93,0.14,-3.01,0.63
-0.08,0.39,0.93,-0.28,-3.08,0.77
-0.07,0.39,0.93,-0.63,-3.22,0.84
-0.07,0.39,0.93,-0.91,-3.29,0.91
-0.07,0.38,0.93,-0.98,-3.08,1.05
-0.07,0.38,0.93,-0.84,-2.94,1.05
-0.07,0.38,0.93,-0.21,-2.66,0.98
-0.07,0.38,0.92,0.07,-2.59,0.98
-0.07,0.38,0.93,0.42,-2.59,0.98
-0.07,0.38,0.93,0.49,-2.24,0.98
-0.07,0.38,0.93,0.7,-2.24,0.84
-0.07,0.38,0.93,0.98,-2.31,0.77
-0.07,0.38,0.93,1.19,-2.24,0.49
-0.08,0.37,0.93,1.47,-2.31,0.35
-0.08,0.37,0.93,1.26,-2.38,0.35
-0.08,0.38,0.93,0.91,-2.31,0.14
-0.08,0.38,0.93,0.63,-2.45,0.28
-0.09,0.38,0.93,0.42,-2.94,0.07
-0.09,0.38,0.93,-0.07,-3.15,0
-0.09,0.37,0.93,-0.42,-3.01,0.07
-0.09,0.38,0.93,-0.63,-3.43,0.07
-0.08,0.38,0.94,-0.98,-3.36,0.07
-0.08,0.38,0.93,-0.98,-3.57,-0.07
-0.08,0.38,0.93,-0.98,-3.57,0
-0.08,0.38,0.93,-0.91,-3.5,-0.14
-0.07,0.39,0.92,-0.63,-3.57,-0.35
-0.06,0.39,0.92,-0.63,-3.36,-0.21
-0.06,0.39,0.92,-0.56,-3.22,-0.28
-0.06,0.39,0.92,-0.28,-3.22,0
-0.06,0.39,0.92,0.07,-3.01,0.21
-0.06,0.39,0.91,0.35,-2.8,0.14
-0.06,0.39,0.92,0.56,-2.59,0.35
-0.06,0.39,0.91,0.77,-2.03,0.49
-0.07,0.39,0.92,1.19,-2.1,0.56
-0.07,0.39,0.92,1.33,-1.96,0.42
-0.08,0.39,0.92,1.61,-1.89,0.49
-0.08,0.39,0.92,1.75,-2.03,0.42
-0.08,0.4,0.92,1.82,-2.03,0.35
-0.09,0.39,0.92,1.68,-2.31,0.35
-0.09,0.4,0.93,1.26,-2.52,0.28
-0.1,0.4,0.93,0.84,-2.87,0.28
-0.1,0.4,0.93,0.42,-3.01,17.85
-0.1,0.4,0.92,0.14,-3.22,0.14
-0.09,0.4,0.92,-0.14,-3.36,0.07
-0.09,0.4,0.92,-0.35,-3.78,0.14
-0.09,0.4,0.92,-0.35,-3.64,0.14
-0.08,0.4,0.92,0.07,-3.57,0.42
-0.08,0.4,0.92,0.28,-3.22,0.49
-0.08,0.4,0.92,0.49,-3.08,0.63
-0.08,0.41,0.92,0.63,-2.94,0.63
-0.08,0.4,0.92,0.63,-2.94,0.7
-0.08,0.41,0.92,0.42,-2.8,0.84
-0.08,0.4,0.92,0.21,-2.8,0.63
-0.08,0.4,0.92,-0.07,-2.87,0.91
-0.08,0.4,0.92,-0.56,-2.94,1.05
-0.08,0.4,0.92,-0.84,-3.08,0.77
-0.08,0.4,0.92,-1.05,-3.15,0.56
-0.07,0.4,0.91,-1.26,-3.01,0.21
-0.08,0.4,0.92,-1.12,-3.43,0.28
-0.08,0.4,0.92,-0.91,-3.5,0.14
-0.08,0.4,0.92,-0.84,-3.36,0.07
-0.08,0.4,0.92,-0.63,-3.22,0.07
-0.08,0.4,0.92,-0.77,-3.22,0.07
-0.08,0.39,0.92,-0.7,-3.15,-0.14
-0.08,0.4,0.92,-0.91,-3.01,0.07
-0.08,0.39,0.92,-0.91,-2.8,-0.07
-0.08,0.4,0.92,-1.12,-3.22,0.14
-0.08,0.39,0.92,-0.98,-3.22,0.35
-0.08,0.39,0.92,-1.05,-2.94,0.49
-0.08,0.39,0.92,-0.77,-3.08,0.42
-0.08,0.39,0.92,-0.63,-2.87,0.49
-0.08,0.39,0.92,-0.14,-2.94,0.63
-0.07,0.39,0.92,0.42,-2.94,0.63
-0.08,0.39,0.92,0.7,-2.73,0.49
-0.08,0.39,0.92,0.98,-2.66,0.49
-0.08,0.39,0.92,0.98,-2.52,0.35
-0.08,0.39,0.92,1.05,-2.8,0.28
-0.08,0.4,0.92,0.98,-2.94,0.49
-0.08,0.4,0.92,0.7,-2.87,0.21
-0.08,0.4,0.92,0.49,-2.87,0.28
-0.08,0.4,0.92,0.28,-2.94,0.28
-0.08,0.4,0.92,0.21,-2.94,0.28
-0.08,0.4,0.92,0.21,-2.94,0.28
-0.08,0.4,0.92,0.14,-2.73,0.28
-0.07,0.4,0.92,0.28,-2.94,0.14
-0.08,0.4,0.92,0.35,-2.73,0.21
-0.08,0.4,0.92,0.42,-2.73,0.21
-0.08,0.39,0.92,0.42,-2.8,0.49
-0.08,0.4,0.92,0.49,-2.73,0.35
-0.08,0.4,0.92,0.42,-2.66,0.49
-0.08,0.4,0.92,0.35,-2.8,0.77
-0.08,0.4,0.92,0.21,-2.59,0.7
-0.08,0.39,0.92,0.28,-2.73,0.56
-0.08,0.4,0.92,0.42,-2.8,0.77
-0.08,0.4,0.92,0.35,-2.59,0.56
-0.08,0.4,0.92,0.56,-2.52,0.49
-0.08,0.4,0.92,0.7,-2.52,0.49
-0.08,0.4,0.92,0.56,-2.52,0.42
-0.08,0.4,0.92,0.63,-2.73,0.28
-0.08,0.4,0.92,0.56,-2.66,0.35
-0.08,0.4,0.92,0.42,-2.8,0.14
-0.08,0.4,0.92,0.35,-2.59,0.35
-0.08,0.4,0.92,0.28,-2.73,0.42
-0.08,0.4,0.92,0.07,-2.94,0.35
-0.08,0.4,0.92,0.07,-2.87,0.28
-0.08,0.4,0.92,-0.07,-3.01,0.28
-0.08,0.4,0.92,-0.28,-2.87,0.28
-0.08,0.4,0.92,-0.21,-3.01,0.21
-0.08,0.4,0.92,-0.21,-3.01,0.42
-0.08,0.4,0.92,-0.49,-2.87,0.35
-0.08,0.4,0.92,-0.63,-2.87,0.42
-0.08,0.4,0.92,-0.56,-3.15,0.63
-0.08,0.4,0.92,-0.63,-3.08,0.56
-0.08,0.4,0.92,-0.7,-3.15,0.56
-0.08,0.39,0.92,-0.7,-3.15,0.42
-0.08,0.4,0.92,0,-3.22,0.49
-0.08,0.4,0.92,0.42,-2.94,0.56
-0.08,0.39,0.92,0.84,-2.8,0.42
-0.08,0.39,0.92,1.26,-2.66,0.42
-0.08,0.4,0.92,1.33,-2.8,0.35
-0.08,0.4,0.92,1.19,-2.66,0.35
-0.08,0.4,0.92,0.63,-2.87,0.28
-0.08,0.4,0.92,0.28,-3.15,0.42
-0.08,0.4,0.92,-0.07,-3.29,0.21
-0.08,0.4,0.92,-0.42,-3.22,0.14
-0.07,0.4,0.92,-0.7,-3.29,0.07
-0.07,0.4,0.92,-0.91,-3.43,0.14
-0.07,0.4,0.92,-0.91,-3.36,0.14
-0.07,0.4,0.92,-0.84,-3.22,0.07
-0.07,0.4,0.92,-0.77,-2.87,17.85
-0.07,0.4,0.92,-0.35,-2.8,0
-0.07,0.4,0.92,0,-2.59,0.07
-0.08,0.4,0.92,0.21,-2.52,-0.07
-0.08,0.4,0.92,0.35,-2.59,0.07
-0.09,0.4,0.92,0.21,-2.45,-0.07
-0.08,0.4,0.92,0.07,-2.45,0
-0.09,0.4,0.92,-0.21,-2.59,0.21
-0.09,0.39,0.92,-0.21,-2.87,0.21
-0.08,0.39,0.92,-0.35,-2.73,0.14
-0.08,0.4,0.92,-0.42,-2.66,0.07
-0.08,0.39,0.92,-0.21,-2.94,0.14
-0.08,0.39,0.92,-0.28,-3.08,0.28
-0.08,0.39,0.92,-0.21,-3.01,0.28
-0.08,0.39,0.92,0,-2.94,0.28
-0.08,0.39,0.92,0.07,-2.8,0.35
-0.08,0.4,0.92,0.42,-2.73,0.49
-0.08,0.4,0.92,0.7,-2.66,0.42
-0.08,0.39,0.92,0.84,-2.59,0.56
-0.08,0.4,0.92,0.84,-2.66,0.77
-0.08,0.4,0.92,0.91,-2.8,0.84
-0.08,0.4,0.92,0.84,-2.52,0.91
-0.08,0.4,0.92,0.91,-2.73,0.91
-0.08,0.4,0.92,0.77,-2.38,0.7
-0.08,0.4,0.92,0.56,-2.45,0.77
-0.08,0.4,0.92,0.56,-2.59,0.77
-0.08,0.4,0.92,0.42,-2.59,0.56
-0.08,0.4,0.92,0.49,-2.66,0.49
-0.08,0.4,0.92,0.35,-2.8,0.28
-0.08,0.4,0.92,0.14,-2.87,0.35
-0.08,0.4,0.92,-0.07,-2.94,0.28
-0.08,0.4,0.92,-0.28,-3.01,0.21
-0.08,0.39,0.92,-0.42,-3.15,0.14
-0.08,0.39,0.92,-0.63,-2.94,0.28
-0.08,0.39,0.92,-0.77,-3.29,0.28
-0.08,0.39,0.92,-0.84,-3.29,0.07
-0.08,0.39,0.92,-0.7,-3.08,0.14
-0.08,0.4,0.92,-0.7,-3.15,0.21
-0.08,0.39,0.92,-0.49,-3.15,0.14
-0.08,0.4,0.92,-0.35,-3.15,0.14
-0.08,0.4,0.92,-0.21,-3.29,0.21
-0.08,0.4,0.92,-0.07,-3.29,0.35
-0.08,0.4,0.92,0,-3.36,0.49
-0.08,0.4,0.92,-0.14,-3.29,0.42
-0.08,0.4,0.92,-0.21,-3.43,0.35
-0.08,0.4,0.92,-0.28,-3.5,0.35
-0.07,0.39,0.92,-0.35,-3.29,0.21
-0.08,0.4,0.92,-0.42,-3.22,0.35
-0.08,0.4,0.92,-0.28,-3.22,0.28
-0.07,0.4,0.92,-0.21,-3.08,0.14
-0.07,0.4,0.92,0.07,-3.01,0.42
-0.08,0.4,0.92,0.35,-2.66,0.42
-0.08,0.4,0.92,0.28,-2.73,0.56
-0.08,0.4,0.92,0.28,-2.8,0.77
-0.08,0.4,0.92,0.14,-2.66,0.91
-0.08,0.4,0.92,0.21,-2.31,0.84
-0.08,0.4,0.92,0.21,-2.52,0.98
-0.08,0.39,0.92,0.35,-2.45,0.91
-0.08,0.39,0.92,0.42,-2.38,0.84
-0.08,0.39,0.92,0.42,-2.52,0.91
-0.08,0.39,0.92,0.14,-2.45,0.49
-0.08,0.4,0.92,-0.07,-2.66,0.42
-0.08,0.4,0.92,-0.35,-2.94,0.35
-0.08,0.4,0.92,-0.63,-3.08,0.35
-0.08,0.4,0.92,-0.35,-3.36,0.21
-0.08,0.39,0.92,-0.21,-3.01,0.14
-0.08,0.39,0.92,0.14,-3.08,0.21
-0.08,0.4,0.92,0.42,-2.8,0.28
-0.08,0.4,0.92,0.7,-3.01,0.28
-0.08,0.4,0.92,0.7,-2.52,0.28
-0.08,0.4,0.92,0.77,-2.8,0.56
-0.08,0.4,0.92,0.84,-2.73,0.49
-0.08,0.4,0.92,0.7,-2.45,0.56
-0.08,0.4,0.92,0.63,-2.66,0.63
-0.08,0.4,0.92,0.42,-2.66,0.56
-0.08,0.4,0.92,0.28,-2.59,0.49
-0.08,0.4,0.92,0.14,-2.73,0.56
-0.08,0.4,0.92,0,-2.87,0.56
-0.08,0.4,0.92,0.07,-3.08,0.49
-0.08,0.4,0.92,-0.14,-2.94,0.7
-0.08,0.4,0.92,0,-3.01,0.63
-0.08,0.4,0.92,0,-3.01,0.49
-0.07,0.4,0.92,0.07,-2.66,0.49
-0.08,0.4,0.92,0.35,-2.66,0.49
-0.08,0.4,0.92,0.35,-2.38,0.35
-0.08,0.4,0.92,0.42,-2.52,0.77
-0.08,0.4,0.92,0.28,-2.31,0.56
-0.08,0.4,0.92,0.63,-2.31,0.49
-0.08,0.4,0.92,0.91,-2.52,0.56
-0.08,0.4,0.92,0.91,-2.59,0.35
-0.08,0.4,0.92,0.84,-2.66,0.35
-0.08,0.4,0.92,0.84,-2.59,0.35
-0.08,0.4,0.92,0.77,-2.59,0.35
-0.08,0.4,0.92,0.49,-2.38,0.49
-0.08,0.4,0.92,0.14,-2.66,0.42
-0.08,0.4,0.92,-0.07,-2.87,0.49
-0.08,0.4,0.92,-0.28,-2.94,0.49
-0.08,0.4,0.92,-0.56,-2.87,0.49
-0.08,0.4,0.92,-0.42,-2.94,0.56
-0.08,0.4,0.92,-0.42,-2.73,0.49
-0.08,0.4,0.92,0,-2.94,0.28
-0.08,0.4,0.92,0.35,-2.73,0.21
-0.08,0.4,0.92,0.49,-2.73,0.28
-0.08,0.39,0.92,0.63,-2.94,0.49
-0.09,0.39,0.92,0.49,-3.01,0.21
-0.09,0.39,0.92,0.21,-3.15,0.42
-0.09,0.4,0.92,-0.14,-3.22,0.42
-0.08,0.4,0.92,-0.28,-3.29,0.28
-0.08,0.4,0.92,-0.56,-3.36,0.35
-0.08,0.4,0.92,-0.84,-3.29,0.21
-0.08,0.4,0.92,-0.63,-3.36,0.14
-0.08,0.4,0.92,-0.21,-3.22,0.07
-0.07,0.4,0.92,0,-3.29,0.07
-0.08,0.4,0.92,0.07,-3.22,0.28
-0.07,0.4,0.92,0.21,-2.94,0.28
-0.07,0.4,0.92,0.49,-2.94,0.35
-0.08,0.4,0.92,0.63,-2.87,0.35
-0.08,0.4,0.92,0.63,-2.73,0.56
-0.08,0.4,0.92,0.42,-2.59,0.35
-0.08,0.4,0.92,0.14,-2.8,0.35
-0.08,0.4,0.92,-0.07,-2.87,0.21
-0.08,0.4,0.92,-0.35,-2.94,0.28
-0.08,0.4,0.92,-0.49,-2.94,0.21
-0.08,0.4,0.92,-0.63,-3.22,0.35
-0.08,0.4,0.92,-0.84,-3.08,0.14
-0.08,0.4,0.92,-0.84,-3.08,0.21
-0.08,0.4,0.92,-0.91,-3.15,0.35
-0.08,0.4,0.92,-0.91,-3.22,0.35
-0.08,0.4,0.92,-0.91,-2.87,0.42
-0.08,0.4,0.92,-0.7,-2.87,0.35
-0.08,0.4,0.92,-0.49,-2.8,0.49
-0.08,0.4,0.92,-0.28,-2.87,0.63
-0.08,0.4,0.92,-0.07,-2.87,0.56
-0.08,0.4,0.92,-0.28,-2.87,0.63
-0.08,0.4,0.92,-0.14,-2.94,0.63
-0.08,0.4,0.92,-0.28,-2.59,0.63
-0.08,0.4,0.92,-0.28,-2.8,0.56
-0.08,0.39,0.92,-0.21,-2.94,0.49
-0.08,0.39,0.92,-0.42,-3.01,0.56
-0.08,0.39,0.92,-0.63,-3.15,0.49
-0.08,0.39,0.92,-0.84,-3.29,0.35
-0.08,0.39,0.92,-1.12,-3.36,0.35
-0.08,0.39,0.92,-1.19,-3.5,0.21
-0.07,0.39,0.92,-1.19,-3.64,0.21
-0.07,0.39,0.92,-1.26,-3.57,0.14
-0.07,0.39,0.92,-0.98,-3.5,0.14
-0.07,0.39,0.92,-0.98,-3.29,0.14
-0.07,0.39,0.92,-0.56,-3.29,0.14
-0.07,0.39,0.92,-0.28,-3.22,0.14
-0.07,0.39,0.92,0.14,-2.87,0.28
-0.08,0.39,0.92,0.56,-2.73,0.42
-0.08,0.39,0.92,0.77,-2.8,0.42
-0.08,0.39,0.93,0.77,-2.59,0.42
-0.08,0.39,0.93,0.77,-2.59,0.28
-0.08,0.39,0.93,0.98,-2.45,0.49
-0.08,0.39,0.92,0.98,-2.59,0.56
-0.08,0.39,0.92,1.05,-2.66,0.42
-0.08,0.39,0.92,0.91,-2.66,0.35
-0.08,0.39,0.92,0.91,-2.87,0.28
-0.08,0.39,0.92,0.7,-3.01,0.21
-0.08,0.4,0.92,0.42,-3.15,0.07
-0.08,0.4,0.92,0.21,-3.36,0
-0.08,0.4,0.92,-0.21,-3.64,-0.07
-0.08,0.4,0.92,-0.56,-3.71,-0.14
-0.08,0.4,0.92,-0.84,-3.5,-0.07
-0.08,0.4,0.92,-0.84,-3.85,-0.07
-0.08,0.4,0.92,-0.7,-3.64,0
-0.08,0.4,0.92,-0.63,-3.36,0
-0.07,0.4,0.92,-0.49,-3.29,0.14
-0.07,0.4,0.92,-0.42,-3.15,0.21
-0.08,0.4,0.92,-0.21,-3.08,0.35
-0.07,0.41,0.92,-0.28,-2.94,0.49
-0.07,0.41,0.92,-0.63,-2.94,0.49
-0.07,0.41,0.92,-0.91,-2.94,0.56
-0.08,0.4,0.92,-1.4,-3.15,0.63
-0.08,0.4,0.92,-1.89,-3.36,0.7
-0.07,0.4,0.92,-2.24,-3.57,0.63
-0.07,0.39,0.92,-2.31,-3.36,0.49
-0.07,0.39,0.92,-1.68,-3.22,0.42
-0.07,0.39,0.92,-0.7,-2.73,0.56
-0.07,0.39,0.92,0.28,-2.24,0.42
-0.08,0.39,0.93,1.05,-1.89,0.49
-0.08,0.39,0.93,1.33,-2.1,0.63
-0.09,0.39,0.93,0.98,-2.24,0.56
-0.09,0.39,0.93,0.35,-2.59,0.84
-0.09,0.4,0.93,-0.63,-2.8,0.7
-0.09,0.4,0.93,-1.4,-3.57,0.84
-0.09,0.4,0.92,-2.52,-3.85,0.7
-0.09,0.4,0.92,-3.22,-4.06,0.56
-0.08,0.39,0.92,-3.64,-4.34,0.7
-0.08,0.39,0.92,-3.71,-4.34,0.49
-0.08,0.39,0.92,-3.57,-4.2,0.56
-0.07,0.38,0.92,-2.87,-3.85,0.56
-0.07,0.38,0.93,-1.82,-3.5,0.42
-0.07,0.38,0.93,-0.84,-3.36,0.28
-0.07,0.38,0.93,0.07,-3.01,0.28
-0.07,0.39,0.93,0.56,-2.87,0.49
-0.08,0.39,0.93,0.63,-2.73,0.42
-0.08,0.39,0.93,0.63,-2.94,0.63
-0.08,0.39,0.92,0.14,-3.22,0.63
-0.08,0.39,0.92,-0.35,-3.43,0.7
-0.08,0.39,0.92,-0.98,-3.43,0.63
-0.07,0.39,0.92,-1.26,-3.43,0.7
-0.07,0.39,0.92,-1.26,-3.5,0.77
-0.07,0.39,0.92,-1.26,-3.36,0.77
-0.07,0.39,0.92,-1.05,-3.15,0.84
-0.07,0.39,0.92,-0.77,-2.94,0.63
-0.07,0.38,0.93,-0.49,-2.8,0.56
-0.08,0.39,0.92,-0.42,-2.8,0.42
-0.07,0.39,0.92,-0.42,-2.59,0.35
-0.08,0.39,0.92,-0.42,-3.01,0.42
-0.08,0.39,0.92,-0.42,-3.01,0.14
-0.08,0.39,0.93,-0.49,-2.87,0.42
-0.08,0.39,0.93,-0.63,-3.15,0.42
-0.08,0.39,0.93,-0.77,-3.29,0.42
-0.08,0.39,0.93,-0.84,-3.29,0.49
-0.08,0.39,0.93,-0.77,-3.08,0.35
-0.08,0.39,0.93,-0.28,-3.08,0.49
-0.08,0.39,0.93,-0.21,-2.8,0.49
-0.07,0.39,0.92,0.28,-2.8,0.49
-0.07,0.39,0.92,0.49,-2.87,0.28
-0.07,0.39,0.92,0.49,-2.8,0.21
-0.08,0.39,0.92,0.42,-2.66,0.35
-0.07,0.39,0.92,0.28,-2.8,0.42
-0.08,0.39,0.92,0.35,-2.8,0.49
-0.07,0.39,0.92,0.42,-2.59,0.56
-0.08,0.39,0.93,0.49,-2.8,0.63
-0.07,0.39,0.93,0.49,-2.52,0.42
-0.08,0.39,0.93,0.49,-2.52,0.49
-0.08,0.39,0.93,0.42,-2.45,0.35
-0.08,0.39,0.93,0.35,-2.59,0.63
-0.08,0.39,0.93,0.28,-2.87,0.49
-0.08,0.39,0.93,0.14,-2.94,0.42
-0.08,0.39,0.92,0,-2.94,0.56
-0.08,0.39,0.93,-0.28,-3.01,0.56
-0.08,0.39,0.92,-0.35,-3.01,0.49
-0.08,0.39,0.92,-0.42,-3.08,0.56
-0.08,0.39,0.92,-0.21,-2.73,0.28
-0.08,0.39,0.92,-0.07,-2.94,0.42
-0.08,0.39,0.92,-0.14,-2.73,0.49
-0.08,0.39,0.92,-0.07,-2.87,0.49
-0.08,0.39,0.92,0.07,-2.66,0.35
-0.08,0.39,0.92,0.21,-2.73,0.49
-0.07,0.39,0.93,0.14,-2.59,0.28
-0.07,0.39,0.92,0.21,-2.73,0.35
-0.07,0.39,0.92,0.21,-2.87,0.42
-0.07,0.39,0.92,0.14,-2.94,0.35
-0.08,0.39,0.92,0,-3.08,0.63
-0.08,0.39,0.92,-0.07,-2.87,0.21
-0.08,0.39,0.93,0,-3.15,0.49
-0.07,0.39,0.92,-0.07,-2.87,0.28
-0.07,0.39,0.92,-0.07,-2.59,0.28
-0.08,0.39,0.92,0.14,-2.59,0.42
-0.08,0.39,0.92,0.28,-2.66,0.42
-0.08,0.39,0.92,0.35,-2.73,0.56
-0.08,0.39,0.92,0.28,-2.52,0.63
-0.08,0.39,0.92,0.14,-2.8,0.42
-0.08,0.39,0.92,0.14,-2.94,0.49
-0.08,0.39,0.92,0,-2.73,0.56
-0.08,0.39,0.93,0.28,-2.87,0.7
-0.08,0.39,0.93,0.14,-2.8,0.63
-0.08,0.39,0.92,0.21,-2.66,0.56
-0.08,0.39,0.93,0.14,-2.66,0.63
-0.08,0.39,0.92,0,-2.8,0.56
-0.07,0.39,0.93,0.07,-2.87,0.49
-0.07,0.39,0.92,0.07,-2.94,0.7
-0.08,0.39,0.93,0.07,-2.94,0.49
-0.08,0.39,0.93,0.14,-3.01,0.42
-0.08,0.39,0.93,0.21,-2.94,0.56
-0.08,0.39,0.92,0.07,-2.87,0.49
-0.08,0.39,0.92,0.07,-2.94,0.49
-0.08,0.39,0.92,0,-2.94,0.35
-0.08,0.39,0.93,17.85,-2.8,0.35
-0.08,0.39,0.92,0,-2.87,0.35
-0.08,0.39,0.92,0.07,-2.87,0.21
-0.08,0.39,0.92,0.21,-2.87,0.14
-0.08,0.39,0.93,0.21,-2.87,0.35
-0.08,0.39,0.93,0.07,-2.94,0.42
-0.08,0.39,0.93,-0.14,-3.01,0.35
-0.08,0.39,0.92,-0.21,-3.15,0.42
-0.07,0.39,0.93,-0.35,-3.08,0.35
-0.08,0.39,0.93,-0.35,-3.29,0.28
-0.07,0.39,0.93,-0.35,-3.22,0.28
-0.07,0.39,0.92,-0.14,-3.01,0.14
-0.07,0.39,0.92,-17.92,-2.94,0.21
-0.08,0.39,0.92,0.35,-2.87,0.14
-0.07,0.39,0.92,0.49,-2.8,0.14
-0.08,0.39,0.92,0.77,-2.8,0.14
-0.08,0.39,0.92,0.7,-2.66,0.21
-0.08,0.39,0.92,0.56,-2.94,0.21
-0.08,0.39,0.92,0.28,-2.94,0.35
-0.08,0.39,0.92,0.21,-2.8,0.28
-0.07,0.39,0.92,0.21,-2.8,0.35
-0.08,0.39,0.93,0.07,-2.73,0.35
-0.08,0.39,0.92,0.07,-2.66,0.49
-0.08,0.39,0.92,-0.07,-2.66,0.42
-0.08,0.39,0.92,-0.21,-2.73,0.28
-0.08,0.39,0.92,-0.07,-2.87,0.42
-0.08,0.39,0.92,-0.21,-2.87,0.28
-0.08,0.39,0.92,-0.14,-3.36,0.49
-0.08,0.39,0.93,-0.28,-3.22,0.21
-0.08,0.39,0.92,-0.42,-2.94,0.28
-0.08,0.39,0.92,-0.14,-2.8,0.21
-0.08,0.39,0.93,0.07,-3.01,0.28
-0.07,0.39,0.92,0.07,-2.8,0.21
-0.07,0.39,0.92,0.07,-2.8,0.21
-0.08,0.39,0.92,0.28,-2.59,0.35
-0.08,0.38,0.92,0.35,-2.52,0.28
-0.08,0.39,0.92,0.56,-2.66,0.35
-0.08,0.39,0.92,0.42,-2.73,0.28
-0.08,0.39,0.92,0.49,-2.8,0.49
-0.08,0.39,0.92,0.28,-2.66,0.28
-0.07,0.39,0.93,0.14,-2.8,0.49
-0.07,0.39,0.93,0.14,-2.66,0.35
-0.07,0.39,0.92,-0.07,-3.08,0.35
-0.07,0.39,0.92,0.07,-2.8,0.28
-0.07,0.38,0.92,0.35,-2.87,0.28
-0.07,0.38,0.92,0.77,-2.87,0.28
-0.08,0.39,0.92,1.05,-2.73,0.14
-0.08,0.39,0.92,1.19,-2.45,0
-0.08,0.39,0.92,1.33,-2.59,0.21
-0.08,0.39,0.92,1.26,-2.45,0.42
-0.08,0.39,0.92,1.12,-2.59,0.49
-0.08,0.39,0.92,0.77,-2.66,0.42
-0.07,0.39,0.92,0.49,-2.66,0.56
-0.08,0.39,0.92,0.35,-2.45,0.63
-0.08,0.39,0.92,0.28,-2.52,0.7
-0.08,0.39,0.92,0.42,-2.52,0.63
-0.08,0.39,0.93,0.63,-2.45,0.7
-0.08,0.39,0.92,0.91,-2.45,0.49
-0.08,0.39,0.92,1.05,-2.45,0.42
-0.07,0.39,0.92,1.19,-2.52,0.28
-0.08,0.39,0.92,1.26,-2.31,0.35
-0.08,0.39,0.92,1.4,-2.59,0.35
-0.08,0.39,0.92,1.19,-2.45,0.42
-0.08,0.39,0.92,0.77,-2.38,0.42
-0.08,0.39,0.92,0.56,-2.8,0.49
-0.08,0.39,0.92,0.14,-3.01,0.42
-0.08,0.39,0.92,-0.14,-2.8,0.49
-0.08,0.39,0.92,-0.42,-2.73,0.63
-0.08,0.39,0.92,-0.49,-2.94,0.49
-0.08,0.39,0.92,-0.49,-2.94,0.56
-0.08,0.39,0.92,-0.56,-3.08,0.56
-0.08,0.39,0.92,-0.77,-3.08,0.42
-0.08,0.39,0.93,-0.56,-3.08,0.42
-0.08,0.39,0.93,-0.49,-3.01,0.49
-0.08,0.39,0.93,-0.21,-3.08,0.35
-0.08,0.39,0.93,0.14,-3.01,0.28
-0.08,0.39,0.93,0.35,-3.08,0.42
-0.08,0.39,0.93,0.28,-2.94,0.42
-0.08,0.39,0.92,0.14,-2.87,0.28
-0.08,0.39,0.92,0.21,-2.8,0.35
-0.08,0.39,0.92,0.07,-2.8,0.42
-0.07,0.39,0.92,0.07,-2.87,0.7
-0.07,0.39,0.92,-0.07,-2.73,0.77
-0.07,0.39,0.92,0,-2.66,0.77
-0.08,0.39,0.92,0.28,-2.8,0.98
-0.08,0.39,0.92,0.42,-2.59,0.98
-0.07,0.39,0.92,0.35,-2.59,1.12
-0.07,0.39,0.92,0.35,-2.38,1.05
-0.08,0.39,0.92,0.35,-2.59,1.05
-0.08,0.39,0.93,0.28,-2.59,0.91
-0.08,0.39,0.92,0.35,-2.31,0.98
-0.08,0.39,0.92,0.07,-2.45,0.91
-0.08,0.39,0.93,0.21,-2.8,0.98
-0.08,0.4,0.92,0.07,-2.73,0.91
-0.08,0.4,0.92,0.07,-2.73,0.84
-0.08,0.4,0.92,-0.07,-2.8,0.77
-0.08,0.4,0.93,-0.28,-3.01,0.77
-0.08,0.4,0.92,-0.56,-3.01,0.63
-0.08,0.39,0.92,-0.63,-2.94,0.63
-0.08,0.39,0.92,-0.56,-3.08,0.77
-0.07,0.39,0.92,-0.63,-2.8,0.63
-0.07,0.39,0.92,-0.42,-2.8,0.49
-0.08,0.39,0.92,-0.21,-2.73,0.63
-0.08,0.39,0.92,-0.21,-2.52,0.7
-0.08,0.39,0.92,-0.14,-2.66,0.77
-0.08,0.39,0.92,-0.42,-2.73,0.77
-0.08,0.39,0.93,-0.56,-3.01,0.77
-0.08,0.39,0.93,-0.7,-2.66,0.63
-0.08,0.39,0.93,-0.63,-2.45,0.63
-0.08,0.39,0.93,-0.56,-3.01,0.77
-0.08,0.39,0.93,-0.56,-3.08,0.63
-0.08,0.39,0.93,-0.49,-3.08,0.56
-0.08,0.39,0.93,-0.42,-3.15,0.63
-0.08,0.38,0.93,-0.28,-3.08,0.63
-0.08,0.38,0.93,-0.21,-3.01,0.63
-0.08,0.39,0.93,0,-2.87,0.7
-0.08,0.39,0.92,0.14,-2.73,0.56
-0.08,0.38,0.92,0.35,-3.01,0.56
-0.08,0.39,0.92,0.42,-2.94,0.42
-0.08,0.39,0.92,0.35,-3.01,0.42
-0.08,0.39,0.92,0.35,-2.87,0.35
-0.07,0.39,0.92,0.28,-3.08,0.42
-0.07,0.39,0.92,0.21,-2.94,0.42
-0.07,0.39,0.92,0.14,-2.94,0.42
-0.07,0.39,0.92,0.21,-3.08,0.42
-0.08,0.39,0.92,0.14,-2.94,0.28
-0.08,0.39,0.92,0.14,-2.94,0.42
-0.07,0.39,0.92,0.07,-3.08,0.28
-0.07,0.39,0.92,0.07,-3.15,0.42
-0.07,0.39,0.92,0.21,-3.08,0.28
-0.07,0.39,0.92,0.14,-2.94,0.14
-0.08,0.39,0.92,0.14,-2.87,0.21
-0.08,0.39,0.92,0.28,-2.73,0.35
-0.08,0.39,0.92,0.42,-2.66,0.21
-0.08,0.39,0.92,0.56,-2.52,0.7
-0.08,0.39,0.92,0.63,-2.38,0.7
-0.08,0.39,0.92,0.63,-2.45,0.91
-0.08,0.39,0.92,0.49,-2.31,0.98
-0.08,0.39,0.93,0.42,-2.31,0.91
-0.08,0.39,0.92,0.42,-2.31,0.7
-0.08,0.39,0.92,0.28,-2.59,0.77
-0.08,0.39,0.93,0.07,-2.66,0.84
-0.08,0.39,0.92,0.07,-2.94,0.7
-0.08,0.39,0.92,-0.07,-2.8,0.63
-0.08,0.39,0.92,-0.21,-3.15,0.77
-0.08,0.39,0.92,-0.21,-3.08,0.63
-0.08,0.39,0.93,-0.21,-3.15,0.91
-0.08,0.39,0.92,-0.28,-2.94,0.63
-0.08,0.39,0.92,-0.28,-2.87,0.77
-0.08,0.39,0.92,-0.14,-3.08,0.7
-0.08,0.39,0.92,-0.21,-3.08,0.7
-0.08,0.39,0.92,-0.21,-3.01,0.7
-0.07,0.39,0.92,-0.28,-2.8,0.49
-0.07,0.39,0.92,-0.14,-2.87,0.7
-0.07,0.39,0.92,-0.07,-3.01,0.56
-0.07,0.39,0.92,0.07,-2.94,0.56
-0.08,0.39,0.92,-0.14,-2.87,0.42
-0.08,0.39,0.92,-0.42,-2.8,0.28
-0.07,0.39,0.92,-0.42,-3.15,0.35
-0.08,0.39,0.93,-0.56,-3.08,0.28
-0.08,0.39,0.92,-0.63,-2.87,0.35
-0.08,0.39,0.93,-0.63,-2.94,0.07
-0.08,0.39,0.92,-0.42,-3.01,0.21
-0.08,0.39,0.92,-0.35,-2.87,0.35
-0.08,0.39,0.92,-0.35,-2.87,0.42
-0.08,0.39,0.92,-0.28,-3.22,0.63
-0.08,0.39,0.92,-0.56,-2.87,0.56
-0.08,0.39,0.92,-0.42,-3.08,0.91
-0.07,0.39,0.92,-0.35,-3.08,0.91
-0.07,0.39,0.92,-0.42,-2.8,0.77
-0.07,0.39,0.92,-0.21,-2.73,0.84
-0.07,0.39,0.92,0,-2.52,0.91
-0.07,0.39,0.92,0.49,-2.38,0.7
-0.07,0.39,0.92,0.84,-2.38,0.84
-0.08,0.39,0.92,0.98,-2.38,0.7
-0.08,0.39,0.92,1.05,-2.59,0.7
-0.08,0.39,0.92,1.05,-2.38,0.63
-0.08,0.39,0.93,0.42,-2.52,0.49
-0.08,0.39,0.93,0.14,-2.8,0.63
-0.08,0.39,0.93,-0.07,-2.8,0.56
-0.08,0.39,0.93,-0.35,-2.87,0.56
-0.08,0.39,0.93,-0.56,-2.87,0.42
-0.08,0.39,0.93,-0.56,-3.15,0.42
-0.08,0.39,0.93,-0.35,-3.08,0.42
-0.08,0.38,0.93,-0.35,-3.22,0.42
-0.08,0.39,0.93,-0.35,-3.08,0.35
-0.08,0.39,0.93,-0.28,-3.29,0.42
-0.08,0.39,0.93,-0.14,-3.15,0.21
-0.08,0.39,0.93,-0.14,-3.15,0.14
-0.08,0.39,0.92,0,-3.22,0.14
-0.08,0.38,0.92,0.28,-3.29,0.14
-0.08,0.39,0.92,0.49,-3.29,0.28
-0.08,0.39,0.92,0.7,-3.29,0.14
-0.07,0.39,0.92,0.7,-3.08,0.14
-0.07,0.39,0.92,0.7,-3.15,0.14
-0.07,0.39,0.92,0.7,-3.01,0.21
-0.07,0.39,0.92,0.7,-2.94,0.21
-0.07,0.39,0.92,0.63,-3.01,0.21
-0.07,0.39,0.92,0.49,-2.87,0.35
-0.08,0.39,0.92,0.49,-2.87,0.28
-0.08,0.39,0.92,0.28,-2.8,0.21
-0.08,0.39,0.92,-0.07,-2.87,0
-0.08,0.39,0.92,-0.21,-2.94,0.14
-0.08,0.39,0.93,-0.21,-2.87,0.21
-0.08,0.39,0.92,-0.21,-2.87,0.21
-0.08,0.39,0.92,-0.21,-3.01,0
-0.08,0.39,0.92,0,-2.66,0.14
-0.08,0.39,0.92,0.21,-2.52,0.42
-0.08,0.39,0.93,0.21,-2.73,0.28
-0.08,0.39,0.93,0.21,-2.87,0.42
-0.08,0.39,0.92,0.42,-2.94,0.56
-0.08,0.39,0.93,0.28,-2.52,0.49
-0.08,0.39,0.93,0.35,-2.87,0.7
-0.08,0.39,0.93,0.42,-2.8,0.56
-0.08,0.39,0.92,0.49,-2.73,0.35
-0.08,0.39,0.92,0.56,-2.52,0.35
-0.08,0.39,0.92,0.7,-2.8,0.49
-0.07,0.39,0.92,0.56,-2.73,0.42
-0.08,0.39,0.92,0.49,-2.8,0.21
-0.07,0.39,0.92,0.07,-2.94,0.14
-0.08,0.39,0.92,-0.07,-3.01,-0.07
-0.08,0.39,0.92,-0.14,-2.87,0
-0.08,0.39,0.92,-0.28,-2.94,0.07
-0.08,0.39,0.92,-0.28,-2.87,-0.14
-0.07,0.39,0.92,-0.28,-2.87,0
-0.08,0.39,0.92,-0.07,-3.01,0.14
-0.08,0.39,0.93,-0.07,-2.59,0.28
-0.08,0.39,0.92,0.07,-2.59,0.35
-0.08,0.39,0.92,0.07,-2.31,0.14
-0.08,0.39,0.92,0.28,-2.45,0.28
-0.08,0.39,0.92,0.35,-2.66,0.35
-0.08,0.39,0.92,0.35,-2.52,0.42
-0.08,0.39,0.92,0.28,-2.8,0.49
-0.08,0.39,0.92,0.21,-2.8,0.49
-0.08,0.39,0.93,0.21,-3.01,0.21
-0.08,0.39,0.93,0.14,-3.01,0.49
-0.08,0.39,0.93,0,-2.94,0.49
-0.08,0.39,0.92,0.07,-2.94,0.35
-0.08,0.39,0.92,0.28,-3.01,0.42
-0.08,0.39,0.92,0.42,-2.87,0.42
-0.08,0.39,0.92,0.35,-3.01,0.42
-0.08,0.39,0.92,0.28,-2.87,0.35
-0.08,0.39,0.92,0.21,-2.87,0.35
-0.08,0.39,0.92,0.28,-2.8,0.42
-0.08,0.39,0.92,0.21,-3.01,0.35
-0.08,0.39,0.92,0.21,-3.08,0.42
-0.08,0.39,0.92,0.14,-3.22,0.42
-0.08,0.39,0.92,-0.21,-3.15,0.28
-0.08,0.39,0.92,-0.35,-3.43,0.35
-0.08,0.39,0.92,-0.35,-3.15,0.21
-0.08,0.39,0.92,-0.35,-3.22,0.14
-0.08,0.39,0.92,-0.14,-3.08,0.14
-0.08,0.39,0.92,0.14,-3.01,0.07
-0.08,0.39,0.92,0.28,-2.87,0
-0.08,0.39,0.93,0.42,-2.8,0.21
-0.08,0.39,0.92,0.56,-3.01,0.28
-0.08,0.39,0.93,0.42,-2.73,0.28
-0.08,0.39,0.92,0.49,-2.94,0.35
-0.08,0.39,0.92,0.21,-2.73,0.42
-0.08,0.39,0.93,0,-2.73,0.35
-0.08,0.39,0.92,-0.07,-2.87,0.49
-0.07,0.39,0.92,-0.07,-3.01,0.21
-0.08,0.39,0.92,-0.07,-3.08,0.21
-0.07,0.39,0.92,0.14,-3.29,0.07
-0.08,0.39,0.92,0.21,-3.29,-0.07
-0.08,0.39,0.92,0.14,-3.08,-0.14
-0.08,0.39,0.92,0.35,-3.08,0
-0.08,0.39,0.92,0.35,-2.94,-0.14
-0.08,0.39,0.92,0.14,-2.87,0.07
-0.07,0.39,0.92,0.21,-2.94,0.07
-0.08,0.39,0.92,0.28,-2.87,0.28
-0.08,0.39,0.92,0.21,-2.8,0.21
-0.08,0.39,0.92,0.21,-2.59,0.21
-0.08,0.4,0.92,0.28,-2.31,0.28
-0.08,0.39,0.92,0.21,-2.66,0.35
-0.08,0.39,0.92,0,-2.8,0.42
-0.08,0.39,0.92,-0.07,-2.87,0.28
-0.08,0.39,0.92,-0.21,-3.01,0.14
-0.08,0.39,0.92,-0.14,-3.01,0.28
-0.08,0.39,0.92,0.07,-3.22,0.42
-0.08,0.39,0.92,0.07,-2.87,0.21
-0.08,0.39,0.92,0.28,-2.94,0.21
-0.08,0.39,0.92,0.28,-3.08,0.14
-0.08,0.39,0.92,0.07,-3.01,0.28
-0.08,0.4,0.92,-0.07,-2.87,0.28
-0.08,0.39,0.92,-0.14,-2.94,0.35
-0.08,0.39,0.92,-0.14,-2.87,0.42
-0.08,0.39,0.92,-0.14,-2.8,0.56
-0.08,0.39,0.92,-0.14,-2.8,0.56
-0.08,0.39,0.92,-0.21,-2.66,0.56
-0.08,0.39,0.92,-0.07,-2.73,0.56
-0.08,0.39,0.92,0.21,-2.73,0.63
-0.08,0.39,0.92,0.07,-2.94,0.63
-0.08,0.39,0.92,0.07,-2.87,0.7
-0.08,0.39,0.93,-0.14,-2.87,0.63
-0.08,0.39,0.93,-0.07,-3.01,0.56
-0.08,0.39,0.93,0.14,-3.01,0.49
-0.08,0.39,0.93,0.14,-2.8,0.42
-0.08,0.39,0.93,0.07,-3.01,0.35
-0.08,0.39,0.92,0.28,-3.08,0.35
-0.08,0.39,0.92,0.35,-3.01,0.28
-0.08,0.39,0.92,0.21,-3.01,0.14
-0.08,0.39,0.92,0.07,-3.29,0.35
-0.08,0.39,0.92,-0.21,-3.29,0.42
-0.08,0.39,0.92,-0.14,-3.29,0.21
-0.07,0.39,0.92,-0.28,-3.15,0.28
-0.08,0.39,0.92,-0.28,-3.01,0.28
-0.08,0.39,0.92,-0.35,-3.08,0.28
-0.07,0.39,0.92,-0.28,-3.29,0.28
-0.08,0.39,0.92,-0.35,-3.15,0.14
-0.08,0.39,0.92,-0.28,-2.87,0.28
