Accel_x,Accel_y,Accel_z,Gyr_x,Gyr_y,Gyr_z
-0.06,0.07,1,0.07,-2.94,0.35
-0.05,0.07,1,0.14,-3.01,0.49
-0.05,0.07,1,0.07,-2.87,0.35
-0.05,0.06,1,0.14,-3.01,0.28
-0.06,0.06,1,0.07,-2.8,0.28
-0.06,0.06,1,0,-2.8,0.35
-0.06,0.06,1,0.07,-3.01,0.28
-0.05,0.06,1,0,-2.94,0.21
-0.05,0.07,1,0,-2.8,0.42
-0.05,0.06,1,0.21,-3.08,0.42
-0.06,0.07,1,0.07,-2.94,0.28
-0.06,0.07,1,0,-2.8,0.28
-0.06,0.06,1,0,-2.94,0.28
-0.05,0.07,1,0.07,-2.94,0.28
-0.06,0.07,1,0,-3.01,0.42
-0.05,0.07,1,0.07,-2.87,0.35
-0.06,0.07,1,0,-3.01,0.35
-0.06,0.07,1,0.07,-3.01,0.35
-0.05,0.07,1,0,-2.94,0.28
-0.05,0.06,1,0.07,-2.94,0.35
-0.05,0.07,1,0.07,-3.01,0.21
-0.06,0.07,1,0.07,-3.08,0.42
-0.05,0.06,1,0,-2.94,0.42
-0.05,0.06,1,0.14,-3.01,0.42
-0.06,0.06,1,0,-2.87,0.35
-0.06,0.07,1,0,-3.08,0.42
-0.05,0.07,1,0.14,-3.01,0.42
-0.05,0.06,1,0.07,-3.01,0.35
-0.05,0.06,1,0,-3.01,0.35
-0.05,0.06,1,0.07,-3.01,0.28
-0.05,0.07,1,0.07,-3.15,0.35
-0.05,0.07,1,0.07,-2.94,0.28
-0.05,0.06,1,0.07,-2.94,0.35
-0.05,0.06,1,0.21,-3.29,0.35
-0.06,0.07,1,0.07,-3.01,0.42
-0.06,0.06,1,0.07,-2.94,0.35
-0.06,0.07,1,0,-3.01,0.35
-0.06,0.06,1,0.07,-2.87,0.21
-0.05,0.06,1,0,-2.94,0.42
-0.06,0.07,1,0.07,-3.15,0.35
-0.06,0.06,1,0.07,-3.01,0.35
-0.06,0.07,1,0.07,-3.08,0.21
-0.05,0.06,1,0.07,-2.94,0.35
-0.05,0.06,1,0,-2.87,0.35
-0.06,0.06,1,0.07,-3.01,0.21
-0.06,0.06,1,0.14,-2.94,0.35
-0.06,0.07,1,0.07,-3.01,0.35
-0.05,0.07,1,0.07,-3.08,0.35
-0.05,0.07,1,0.07,-2.87,0.21
-0.05,0.06,1,0.07,-3.01,0.35
-0.05,0.07,1,0,-2.87,0.21
-0.05,0.06,1,0.07,-3.08,0.28
-0.05,0.07,1,0,-2.8,0.28
-0.05,0.06,1,-17.92,-2.66,0.28
-0.06,0.06,1,0.07,-2.94,0.28
-0.06,0.06,1,0.07,-2.87,0.42
-0.05,0.06,1,0.07,-3.01,0.28
-0.06,0.07,1,0.07,-2.94,0.21
-0.05,0.07,1,0.07,-3.15,0.49
-0.05,0.07,1,0,-2.94,0.49
-0.05,0.06,1,0,-2.87,0.28
-0.05,0.07,1,0.07,-3.15,0.28
-0.05,0.07,1,0.14,-3.01,0.35
-0.05,0.07,1,0,-2.94,0.42
-0.05,0.07,1,0,-2.87,0.35
-0.06,0.07,1,0,-3.01,0.35
-0.05,0.06,1,0.07,-2.94,0.42
-0.06,0.06,1,0.07,-3.01,0.49
-0.05,0.07,1,0,-2.8,0.35
-0.05,0.07,1,0,-2.87,0.28
-0.05,0.06,1,0,-3.01,0.49
-0.05,0.07,1,0.07,-3.08,0.42
-0.05,0.06,1,0,-2.94,0.42
-0.05,0.07,1,0.07,-2.94,0.28
-0.05,0.06,1,0,-2.94,0.49
-0.06,0.07,1,0.07,-2.87,0.35
-0.05,0.07,1,0.07,-3.01,0.35
-0.06,0.07,1,0.07,-3.01,0.42
-0.05,0.07,1,0,-2.94,0.35
-0.05,0.07,1,0,-2.87,0.42
-0.05,0.06,1,0,-3.15,0.42
-0.06,0.06,1,0.07,-2.73,0.35
-0.06,0.06,1,0,-2.87,0.42
-0.06,0.06,1,0.14,-3.01,0.28
-0.05,0.07,1,0.14,-2.87,0.21
-0.06,0.06,1,0.07,-3.01,0.28
-0.06,0.07,1,0.14,-3.01,0.42
-0.05,0.06,1,0.14,-3.08,0.35
-0.05,0.06,1,0,-2.94,0.28
-0.06,0.06,1,0.07,-3.08,0.21
-0.06,0.06,1,0.14,-3.15,0.21
-0.05,0.07,1,0,-2.73,0.35
-0.05,0.07,1,0.07,-2.87,0.28
-0.05,0.07,1,0.14,-3.01,0.28
-0.05,0.06,1,0.14,-3.01,0.35
-0.06,0.07,1,-0.07,-2.87,0.28
-0.06,0.06,1,0.14,-3.01,0.35
-0.06,0.06,1,0,-2.94,0.42
-0.05,0.06,1,0.07,-2.87,0.28
-0.05,0.06,1,0.07,-2.94,0.42
-0.05,0.07,1,0.07,-2.94,0.35
-0.06,0.07,1,0.07,-2.87,0.28
-0.06,0.06,1,0,-3.01,0.28
-0.05,0.06,1,0.07,-3.08,0.28
-0.05,0.07,1,0.14,-2.94,0.21
-0.05,0.07,1,0,-3.01,0.28
-0.05,0.07,1,0,-2.73,0.21
-0.06,0.06,1,0.07,-3.01,0.42
-0.05,0.07,1,0,-3.08,0.42
-0.06,0.06,1,0.07,-3.08,0.49
-0.06,0.07,1,0,-2.8,0.35
-0.05,0.07,1,0,-2.94,0.42
-0.06,0.07,1,0,-2.94,0.28
-0.05,0.06,1,-0.07,-2.8,0.14
-0.06,0.06,1,0.07,-3.08,0.42
-0.06,0.06,1,-0.07,-3.01,0.35
-0.05,0.06,1,0.07,-3.08,0.42
-0.05,0.07,1,-17.92,-2.8,0.35
-0.05,0.07,1,0.07,-2.87,0.21
-0.05,0.06,1,0.14,-2.94,0.14
-0.05,0.07,1,0.07,-2.73,0.28
-0.06,0.06,1,0.07,-3.08,0.35
-0.06,0.06,1,0.21,-3.22,0.28
-0.06,0.07,1,0.14,-2.87,0.35
-0.05,0.07,1,-0.07,-2.87,0.42
-0.06,0.07,1,0.14,-3.01,0.28
-0.06,0.07,1,0.07,-3.01,0.42
-0.05,0.07,1,0.07,-3.01,0.42
-0.06,0.07,1,0,-2.87,0.28
-0.05,0.06,1,0.14,-3.08,0.35
-0.06,0.06,1,0,-2.87,0.42
-0.05,0.07,1,0,-3.01,0.35
-0.05,0.07,1,0.07,-3.01,0.42
-0.06,0.07,1,0.07,-3.01,0.35
-0.05,0.07,1,0.07,-2.87,0.35
-0.06,0.06,1,0.07,-2.87,0.35
-0.05,0.07,1,0.07,-2.94,0.28
-0.06,0.07,1,0.14,-3.08,0.28
-0.05,0.06,1,0,-2.87,0.21
-0.05,0.06,1,0.07,-2.94,0.28
-0.05,0.06,1,0,-3.01,0.42
-0.06,0.07,1,0.07,-2.8,0.35
-0.05,0.06,1,0.14,-2.73,0.28
-0.06,0.07,1,-0.07,-2.73,0.35
-0.05,0.06,1,0.21,-3.29,0.42
-0.05,0.06,1,0.07,-3.01,0.28
-0.05,0.06,1,0.14,-2.87,0.28
-0.06,0.06,1,0,-2.8,0.35
-0.05,0.06,1,0,-2.87,0.35
-0.06,0.07,1,0.07,-3.01,0.42
-0.05,0.07,1,0,-2.87,0.35
-0.05,0.06,1,0.07,-3.01,0.42
-0.06,0.07,1,-0.07,-3.01,0.42
-0.06,0.07,1,0,-3.08,0.49
-0.05,0.06,1,0.14,-2.94,0.35
-0.05,0.07,1,0.07,-2.8,0.35
-0.06,0.06,1,0.07,-2.94,0.42
-0.05,0.07,1,0.07,-2.94,0.35
-0.06,0.06,1,0.07,-3.08,0.28
-0.06,0.06,1,0,-2.8,0.35
-0.06,0.07,1,-0.07,-2.8,0.42
-0.05,0.07,1.01,0,-2.8,0.28
-0.06,0.06,1,0,-2.94,0.35
-0.06,0.06,1,0.07,-3.08,0.28
-0.06,0.06,1,0.14,-3.01,0.42
-0.05,0.06,1,0.14,-2.94,0.35
-0.06,0.07,1,0.14,-2.94,0.28
-0.05,0.06,1,0,-3.01,0.28
-0.05,0.06,1,0.14,-3.01,0.35
-0.06,0.06,1,0.07,-3.08,0.35
-0.05,0.07,1,0.21,-3.08,0.35
-0.05,0.06,1,0.14,-3.01,0.21
-0.05,0.06,1,0,-2.87,0.28
-0.05,0.07,1,-0.07,-2.8,0.28
-0.06,0.07,1,0.07,-3.36,0.35
-0.06,0.06,1,0.07,-2.87,0.35
-0.05,0.07,1,0.07,-2.87,0.35
-0.06,0.07,1,0.14,-3.15,0.21
-0.06,0.06,1,-0.07,-3.08,0.35
-0.05,0.07,1,0,-2.87,0.28
-0.06,0.06,1,0.07,-3.01,0.35
-0.06,0.06,1,0,-2.73,0.21
-0.05,0.06,1,0.07,-2.8,0.28
-0.05,0.06,1,0.07,-2.87,0.42
-0.06,0.07,1,0.07,-2.94,0.21
-0.06,0.07,1,0.14,-2.94,0.35
-0.06,0.06,1,0,-2.73,0.35
-0.06,0.06,1,0.07,-2.94,0.42
-0.06,0.07,1,0.07,-2.94,0.35
-0.06,0.07,1,0.07,-3.08,0.42
-0.06,0.06,1,0.07,-3.01,0.28
-0.05,0.06,1,0,-2.87,0.28
-0.06,0.07,1,0,-2.94,0.28
-0.06,0.06,1,0,-2.94,0.42
-0.06,0.07,1,0,-2.94,0.28
-0.05,0.07,1,0.07,-3.01,0.42
-0.06,0.07,1,0,-2.94,0.21
-0.05,0.07,1,0.07,-2.87,0.14
-0.05,0.06,1,0.07,-3.01,0.21
-0.06,0.06,1,0.07,-2.8,0.28
-0.06,0.06,1,0.07,-3.01,0.21
-0.06,0.06,1,-0.07,-2.73,0.14
-0.06,0.06,1,0.07,-3.08,0.35
-0.05,0.06,1,0.14,-3.01,0.28
-0.05,0.07,1,0,-2.8,0.42
-0.05,0.07,1,0.07,-2.87,0.28
-0.05,0.07,1,0.14,-2.94,0.28
-0.05,0.06,1,0.14,-3.01,0.28
-0.06,0.07,1,-0.07,-3.01,0.42
-0.06,0.07,1,0.07,-3.01,0.42
-0.05,0.06,1,0.07,-3.08,0.35
-0.06,0.06,1,0.07,-2.73,0.35
-0.06,0.06,1,0.07,-2.87,0.28
-0.06,0.06,1,0,-2.87,0.28
-0.06,0.06,1,0.07,-2.87,0.28
-0.06,0.06,1,0.14,-2.94,0.42
-0.06,0.07,1,-0.07,-2.87,0.28
-0.05,0.06,1,0.14,-2.87,0.21
-0.06,0.06,1,0.07,-3.01,0.35
-0.05,0.06,1,0,-2.8,0.28
-0.06,0.06,1,0.07,-2.87,0.28
-0.05,0.07,1,0.07,-2.8,0.28
-0.06,0.07,1,0,-2.94,0.21
-0.05,0.07,1,0,-2.87,0.35
-0.06,0.06,1,0.07,-3.01,0.28
-0.06,0.07,1,0.14,-2.94,0.35
-0.06,0.06,1,0.14,-3.01,0.28
-0.06,0.07,1,0.07,-2.94,0.28
-0.06,0.06,1,0,-2.94,0.42
-0.06,0.06,1,-0.07,-2.8,0.35
-0.06,0.06,1,0.07,-3.01,0.14
-0.06,0.06,1,0,-2.94,0.28
-0.05,0.06,1,0.07,-2.94,0.28
-0.05,0.07,1,0,-2.87,0.28
-0.06,0.07,1,0,-2.94,0.28
-0.06,0.07,1,0.07,-2.94,0.35
-0.05,0.07,1,0,-2.94,0.35
-0.05,0.06,1,0.07,-2.94,0.42
-0.06,0.07,1,0,-2.94,0.35
-0.06,0.07,1,0.07,-2.87,0.35
-0.05,0.07,1,0,-2.73,0.35
-0.05,0.07,1,0.14,-3.01,0.49
-0.05,0.07,1,0,-2.87,0.35
-0.05,0.06,1,0.07,-3.01,0.21
-0.05,0.06,1,0.07,-2.94,0.42
-0.05,0.06,1,0.07,-3.08,0.35
-0.05,0.06,1,0,-2.8,0.35
-0.06,0.06,1,0.07,-2.94,0.35
-0.06,0.07,1,0.07,-2.94,0.35
-0.05,0.06,1,0,-2.87,0.28
-0.05,0.07,1,0.14,-3.15,0.35
-0.05,0.06,1,0,-2.94,0.35
-0.06,0.07,1,0.07,-2.94,0.28
-0.06,0.07,1,0.07,-2.94,0.42
-0.06,0.06,1,0.14,-2.94,0.42
-0.05,0.06,1,0.07,-2.94,0.28
-0.06,0.07,1,0,-2.87,0.28
-0.06,0.07,1,0.07,-2.8,0.49
-0.06,0.07,1,0.07,-2.87,0.21
-0.05,0.07,1,0.07,-2.94,0.28
-0.05,0.07,1,0.07,-2.87,0.28
-0.06,0.06,1,0.07,-2.87,0.28
-0.06,0.06,1,0.14,-3.01,0.42
-0.05,0.07,1,0.07,-2.94,0.35
-0.06,0.07,1,0,-2.73,0.28
-0.06,0.07,1,0.07,-2.94,0.35
-0.06,0.07,1,0,-2.87,0.35
-0.05,0.06,1,0,-2.8,0.42
-0.06,0.07,1,0.07,-2.94,0.35
-0.06,0.06,1,-0.07,-2.94,0.14
-0.06,0.07,1,0.07,-2.94,0.28
-0.05,0.07,1,0.07,-2.87,0.28
-0.06,0.07,1,0,-2.87,0.21
-0.05,0.07,1,-0.07,-2.8,0.42
-0.06,0.06,1,0.07,-3.01,0.42
-0.06,0.06,1,0.07,-2.87,0.42
-0.06,0.07,1,0,-2.87,0.28
-0.05,0.06,1,0.07,-2.94,0.42
-0.05,0.07,1,0.14,-2.94,0.42
-0.05,0.07,1,0.07,-3.01,0.28
-0.05,0.06,1,0.07,-2.87,0.28
-0.06,0.07,1,0.07,-2.94,0.35
-0.05,0.07,1,0.07,-2.87,0.28
-0.05,0.07,1,0,-2.87,0.35
-0.06,0.06,1,0.07,-2.87,0.28
-0.05,0.06,1,0,-2.87,0.42
-0.06,0.06,1,0.07,-2.94,0.49
-0.05,0.06,1,0.07,-3.01,0.42
-0.06,0.06,1,0.07,-2.73,0.28
-0.05,0.06,1,0,-3.01,0.28
-0.06,0.06,1,0,-3.01,0.42
-0.06,0.06,1,0.07,-2.8,0.35
-0.06,0.07,1,0.14,-3.08,0.28
-0.06,0.06,1,0,-2.94,0.35
-0.06,0.06,1,0.07,-3.01,0.35
-0.06,0.07,1,0.07,-2.8,0.42
-0.06,0.07,1,0,-3.01,0.28
-0.06,0.06,1,0.21,-3.01,0.35
-0.06,0.06,1,0.07,-3.01,0.21
-0.06,0.07,1,0.14,-3.01,0.42
-0.05,0.06,1,0.14,-3.15,0.35
-0.06,0.07,1,0,-2.87,0.42
-0.06,0.07,1,0.14,-3.01,0.21
-0.06,0.07,1,0,-2.87,0.35
-0.06,0.06,1,0.14,-3.01,0.42
-0.06,0.07,1,0,-3.01,0.28
-0.06,0.07,1,0,-2.87,0.21
-0.05,0.06,1,0.14,-2.8,0.35
-0.05,0.06,1,0.07,-2.87,0.42
-0.06,0.07,1,-0.07,-2.87,0.21
-0.06,0.06,1,0.07,-2.94,0.21
-0.05,0.07,1,0.14,-3.15,0.35
-0.05,0.06,1,0,-3.01,0.28
-0.06,0.06,1,0,-2.94,0.28
-0.06,0.07,1.01,0.07,-2.94,0.28
-0.06,0.06,1,0.07,-2.94,0.28
-0.05,0.07,1.01,0,-2.94,0.28
-0.05,0.07,1,0.07,-3.08,0.28
-0.06,0.07,1,0,-2.94,0.28
-0.06,0.07,1,0,-3.01,0.35
-0.05,0.07,1,0,-2.87,0.42
-0.05,0.06,1,-0.07,-2.87,0.42
-0.06,0.06,1,0.07,-3.08,0.35
-0.05,0.06,1,0.07,-3.08,0.14
-0.06,0.06,1,0.14,-2.94,0.35
-0.06,0.06,1,0.14,-2.8,0.28
-0.06,0.07,1,-0.07,-2.73,0.28
-0.06,0.06,1,0.07,-2.73,0.35
-0.06,0.06,1,0.07,-2.94,0.14
-0.06,0.06,1,0,-2.8,0.35
-0.06,0.07,1,0,-2.94,0.21
-0.06,0.07,1,0.07,-2.94,0.28
-0.05,0.07,1,0.07,-2.94,0.28
-0.05,0.07,1,0,-2.59,0.21
-0.05,0.07,1,0,-2.8,0.28
-0.06,0.07,1,0.07,-2.87,0.21
-0.06,0.06,1,-0.07,-3.01,0.28
-0.05,0.07,1,0.07,-2.8,0.28
-0.06,0.06,1,-0.07,-2.73,0.35
-0.05,0.07,1,-0.07,-2.87,0.14
-0.05,0.07,1,0.21,-3.01,0.42
-0.06,0.07,1,0.07,-3.08,0.42
-0.06,0.07,1,0.07,-2.94,0.28
-0.05,0.07,1,0.14,-3.08,0.35
-0.05,0.06,1,0.14,-3.08,0.35
-0.05,0.07,1,0,-2.73,0.28
-0.05,0.06,1,0.07,-3.01,0.28
-0.06,0.07,1,0,-3.01,0.28
-0.06,0.07,1,0.07,-2.87,0.28
-0.06,0.06,1,0,-2.8,0.28
-0.06,0.06,1,0.07,-2.8,0.28
-0.06,0.06,1,0,-2.94,0.35
-0.06,0.06,1,0.07,-2.8,0.14
-0.06,0.07,1,0.07,-2.94,0.42
-0.06,0.06,1,0.14,-3.01,0.28
-0.06,0.07,1,0.07,-3.01,0.42
-0.05,0.07,1,0.07,-2.94,0.49
-0.05,0.07,1,-0.07,-2.87,0.28
-0.06,0.07,1,0.07,-3.01,0.21
-0.06,0.07,1,0.14,-3.08,0.42
-0.05,0.07,1,-0.07,-2.94,0.42
-0.06,0.06,1,0.14,-2.94,0.35
-0.06,0.06,1,0.14,-3.01,0.35
-0.06,0.06,1,0.14,-2.94,0.35
-0.06,0.06,1,0.07,-3.01,0.35
-0.05,0.07,1,0.07,-2.94,0.35
-0.05,0.07,1,0.14,-3.01,0.28
-0.06,0.07,1,0.07,-2.87,0.42
-0.06,0.07,1,0.07,-2.94,0.42
-0.06,0.07,1,0.07,-3.08,0.35
-0.05,0.07,1,0,-2.8,0.14
-0.06,0.06,1,0.14,-2.87,0.21
-0.06,0.06,1,0,-2.94,0.49
-0.05,0.06,1,0.07,-3.01,0.21
-0.05,0.06,1,0,-2.94,0.21
-0.05,0.07,1,0.14,-2.94,0.28
-0.06,0.06,1,0,-2.87,0.28
-0.06,0.06,1,0,-3.08,0.28
-0.06,0.07,1,0.07,-3.01,0.21
-0.06,0.06,1,0,-2.94,0.42
-0.05,0.07,1,0.07,-2.87,0.35
-0.06,0.07,1,0.07,-3.08,0.35
-0.06,0.07,1,0.07,-3.08,0.42
-0.06,0.06,1,-0.07,-2.87,0.42
-0.06,0.07,1,-0.07,-2.94,0.28
-0.05,0.07,1,0.07,-2.87,0.28
-0.06,0.06,1,0.07,-2.94,0.21
-0.05,0.07,1,0.07,-2.94,0.28
-0.06,0.07,1,0.07,-3.15,0.42
-0.05,0.07,1,0.07,-3.08,0.35
-0.05,0.07,1,0.07,-3.08,0.28
-0.05,0.06,1,0.07,-3.01,0.42
-0.05,0.06,1,0.07,-3.08,0.28
-0.06,0.07,1,0.07,-3.15,0.28
-0.05,0.07,1,0.14,-3.01,0.42
-0.05,0.06,1.01,-0.07,-2.94,0.28
-0.06,0.06,1,0.07,-2.87,0.21
-0.05,0.06,1,0.07,-2.8,0.35
-0.05,0.07,1,0.14,-3.01,0.35
-0.06,0.06,1,0.07,-2.87,0.28
-0.05,0.06,1,0,-2.8,0.28
-0.05,0.07,1,0,-2.73,0.28
-0.05,0.07,1,0.07,-3.08,0.35
-0.05,0.07,1,0.07,-2.73,0.35
-0.06,0.06,1,0.07,-3.01,0.35
-0.05,0.06,1,0.07,-2.94,0.35
-0.06,0.07,1,0,-2.8,0.28
-0.05,0.07,1,0.07,-3.01,0.28
-0.06,0.06,1,0.14,-3.15,0.14
-0.05,0.07,1,0,-3.01,0.35
-0.05,0.07,1,0.07,-3.08,0.35
-0.05,0.07,1,0,-2.87,0.42
-0.06,0.06,1,0.07,-3.01,0.28
-0.05,0.07,1,-0.07,-2.66,0.28
-0.06,0.06,1,0,-3.01,0.42
-0.06,0.07,1,0.07,-2.94,0.42
-0.05,0.07,1,0.07,-2.94,0.28
-0.06,0.07,1,-0.07,-2.73,0.21
-0.06,0.06,1,0,-2.94,0.28
-0.06,0.06,1,0.07,-3.01,0.28
-0.06,0.06,1,0.07,-3.15,0.28
-0.06,0.07,1,0.07,-2.8,0.42
-0.06,0.06,1,0.07,-3.01,0.42
-0.05,0.06,1,0,-2.94,0.35
-0.05,0.06,1,0.14,-2.87,0.35
-0.05,0.06,1,0.07,-2.87,0.28
-0.06,0.07,1,0.07,-2.94,0.28
-0.06,0.06,1,0.14,-2.87,0.21
-0.06,0.06,1,0.14,-2.87,0.42
-0.06,0.07,1,0.07,-2.87,0.21
-0.05,0.07,1,0.07,-2.8,0.35
-0.06,0.06,1,0.07,-2.94,0.42
-0.06,0.06,1,0.14,-3.01,0.63
-0.05,0.06,1,0.07,-3.08,0.35
-0.06,0.07,1,0.07,-3.01,0.21
-0.05,0.07,1,0.07,-3.15,0.35
-0.06,0.07,1,0.07,-3.08,0.42
-0.06,0.06,1,-0.07,-3.01,0.28
-0.06,0.07,1,0,-2.87,0.21
-0.06,0.06,1,0.07,-2.66,0.21
-0.05,0.07,1,0.14,-3.01,0.35
-0.06,0.07,1,0.07,-3.08,0.35
-0.05,0.07,1,0,-3.01,0.42
-0.05,0.06,1,0,-2.94,0.28
-0.06,0.07,1,0,-2.87,0.28
-0.05,0.07,1,0.14,-2.94,0.28
-0.05,0.07,1,0,-2.8,0.28
-0.05,0.06,1,0.07,-3.01,0.35
-0.06,0.07,1,0,-2.94,0.35
-0.05,0.07,1,0.07,-3.01,0.28
-0.06,0.07,1,0,-2.8,0.35
-0.05,0.06,1,0,-3.01,0.49
-0.05,0.07,1,0.07,-3.01,0.35
-0.05,0.06,1,0.07,-2.94,0.28
-0.05,0.06,1,0,-2.87,0.28
-0.06,0.07,1,0,-2.94,0.28
-0.06,0.06,1,0.07,-3.01,0.28
-0.05,0.06,1,0,-3.01,0.35
-0.06,0.06,1,0.07,-2.73,0.28
-0.06,0.07,1,0.14,-3.01,0.28
-0.06,0.07,1,0.07,-2.94,0.21
-0.06,0.07,1,0.07,-3.08,0.35
-0.06,0.07,1,0.07,-2.87,0.28
-0.06,0.06,1,-0.07,-2.73,0.42
-0.05,0.07,1,0.07,-3.01,0.35
-0.06,0.06,1,0.07,-3.01,0.28
-0.06,0.07,1,0.07,-2.87,0.21
-0.05,0.06,1,0,-2.87,0.28
-0.05,0.06,1,0.07,-3.08,0.49
-0.05,0.06,1,0.07,-2.94,0.21
-0.06,0.06,1,0,-2.73,0.35
-0.06,0.07,1,0,-2.87,0.28
-0.05,0.06,1,0.14,-3.01,0.42
-0.05,0.07,1,0,-2.94,0.21
-0.05,0.07,1,0.07,-3.01,0.35
-0.05,0.07,1,0.14,-3.01,0.35
-0.06,0.07,1,0.14,-3.08,0.42
-0.05,0.06,1,0.07,-2.87,0.28
-0.06,0.06,1,0.07,-3.08,0.28
-0.06,0.06,1,0.07,-2.94,0.35
-0.06,0.07,1,0.07,-2.87,0.49
-0.05,0.06,1,0.07,-2.94,0.28
-0.06,0.06,1,0,-2.87,0.35
-0.06,0.07,1,0.07,-2.94,0.35
-0.06,0.07,1,0,-2.87,0.21
-0.05,0.06,1,0.14,-3.22,0.35
-0.05,0.07,1,0.07,-3.01,0.14
-0.05,0.06,1,0,-2.73,0.35
-0.06,0.07,1,0.07,-2.94,0.35
-0.06,0.07,1,0.14,-3.08,0.49
-0.06,0.07,1,0.07,-3.08,0.28
-0.06,0.06,1,0,-3.01,0.35
-0.05,0.06,1,0,-3.01,0.35
-0.05,0.06,1,0.07,-2.94,0.35
-0.06,0.06,1,0.07,-3.08,0.35
-0.05,0.06,1,0,-2.94,0.28
-0.06,0.06,1,0.07,-2.94,0.28
-0.05,0.07,1,0.07,-3.08,0.28
-0.06,0.07,1,0.07,-3.01,0.35
-0.06,0.07,1,-17.92,-2.94,0.35
-0.05,0.06,1,-0.07,-2.87,0.35
-0.05,0.06,1,0.14,-2.87,0.42
-0.06,0.07,1,0.07,-3.01,0.42
-0.06,0.07,1,0.14,-3.01,0.35
-0.06,0.06,1,0.07,-3.01,0.28
-0.05,0.06,1,0.07,-2.66,0.28
-0.05,0.06,1,-0.07,-2.94,0.28
-0.06,0.06,1,0.07,-3.08,0.28
-0.05,0.07,1,0.07,-3.01,0.21
-0.05,0.07,1,-0.07,-2.8,0.21
-0.06,0.07,1,-0.07,-2.87,0.42
-0.06,0.07,1,0.07,-2.94,0.35
-0.05,0.06,1,0,-2.87,0.28
-0.06,0.06,1,0,-3.01,0.35
-0.06,0.06,1,-0.07,-2.8,0.35
-0.06,0.06,1,0.07,-3.01,0.28
-0.05,0.06,1,0.07,-2.87,0.28
-0.05,0.07,1,0.07,-2.94,0.35
-0.06,0.06,1,0.14,-3.15,0.49
-0.06,0.07,1,0.07,-2.94,0.28
-0.05,0.07,1,0,-3.08,0.28
-0.05,0.06,1,0,-2.87,0.21
-0.05,0.07,1,0,-2.94,0.28
-0.06,0.07,1,0.07,-2.94,0.49
-0.06,0.07,1,0.07,-3.08,0.21
-0.05,0.06,1,0.07,-2.94,0.28
-0.05,0.07,1,0.07,-3.01,0.35
-0.06,0.06,1,0.14,-3.08,0.35
-0.06,0.07,1,0.07,-3.01,0.28
-0.05,0.06,1,0,-3.01,0.35
-0.05,0.07,1,0.07,-2.94,0.35
-0.06,0.07,1,0.07,-3.01,0.28
-0.06,0.07,1,0,-2.87,0.21
-0.05,0.07,1,0,-2.8,0.28
-0.06,0.06,1,0.07,-3.01,0.28
-0.06,0.07,1,0.07,-3.01,0.49
-0.05,0.07,1,0.07,-2.87,0.28
-0.06,0.07,1,-0.14,-2.87,0.35
-0.06,0.07,1,0.07,-3.01,0.21
-0.05,0.07,1,0.07,-2.87,0.28
-0.06,0.07,1,0.07,-2.94,0.21
-0.06,0.07,1,0.07,-2.94,0.35
-0.05,0.06,1,-0.07,-3.08,0.35
-0.06,0.07,1,0.07,-3.01,0.42
-0.06,0.07,1,0.07,-2.94,0.35
-0.06,0.06,1,0,-2.94,0.35
-0.06,0.07,1,0.07,-2.87,0.49
-0.06,0.07,1,-0.07,-2.94,0.42
-0.05,0.07,1,0.07,-3.01,0.35
-0.06,0.07,1,0.07,-3.08,0.28
-0.05,0.06,1,0,-3.01,0.28
-0.06,0.07,1,0,-2.87,0.35
-0.06,0.06,1,0.07,-3.08,0.56
-0.06,0.06,1,0.07,-2.94,0.35
-0.05,0.07,1,0,-3.01,0.35
-0.06,0.06,1,0.07,-2.94,0.21
-0.06,0.07,1,0.07,-2.87,0.35
-0.06,0.07,1,0,-2.94,0.21
-0.06,0.06,1,0.14,-3.08,0.21
-0.06,0.07,1,0.07,-2.73,0.35
-0.06,0.06,1,0.14,-2.94,0.42
-0.06,0.07,1,0,-2.94,0.35
-0.06,0.07,1,0,-2.73,0.21
-0.06,0.06,1,0.07,-2.87,0.21
-0.05,0.06,1,0,-2.94,0.35
-0.06,0.06,1,0,-2.94,0.35
-0.06,0.07,1,0.14,-2.87,0.35
-0.05,0.06,1,0.07,-3.01,0.42
-0.06,0.06,1,0.07,-2.87,0.35
-0.06,0.06,1,0.07,-2.94,0.28
-0.05,0.07,1,0.07,-2.94,0.28
-0.06,0.07,1,0.14,-3.01,0.42
-0.06,0.07,1,0.14,-3.08,0.42
-0.05,0.07,1,0.07,-3.01,0.49
-0.06,0.06,1,0.07,-3.01,0.42
-0.06,0.07,1,0.07,-3.08,0.42
-0.05,0.07,1,0.07,-3.08,0.35
-0.06,0.07,1,0.14,-2.8,0.28
-0.05,0.07,1,0.14,-2.87,0.21
-0.05,0.06,1,0,-2.94,0.35
-0.05,0.06,1,0,-2.87,0.35
-0.06,0.07,1,0.07,-3.01,0.35
-0.06,0.07,1,0.14,-3.01,0.35
-0.06,0.07,1,0,-2.87,0.28
-0.05,0.07,1,-0.07,-2.94,0.42
-0.06,0.07,1,0,-2.73,0.07
-0.05,0.06,1,0,-3.01,0.42
-0.05,0.07,1,0.07,-2.87,0.28
-0.05,0.07,1,0.14,-3.01,0.14
-0.05,0.07,1,0.07,-2.94,0.14
-0.05,0.07,1,0,-2.94,0.35
-0.06,0.06,1,0.07,-2.87,0.42
-0.06,0.07,1,0.07,-3.08,0.35
-0.06,0.07,1,0,-2.8,0.28
-0.06,0.07,1,0,-2.8,0.28
-0.05,0.07,1,0.07,-3.01,0.28
-0.05,0.06,1,-0.07,-3.08,0.28
-0.05,0.06,1,0.07,-2.94,0.35
-0.06,0.06,1,0.07,-2.87,0.35
-0.06,0.07,1,0,-2.94,0.21
-0.05,0.07,1,0,-3.08,0.28
-0.05,0.06,1,0.07,-3.15,0.42
-0.05,0.06,1,0.14,-3.08,0.35
-0.06,0.07,1,0.07,-2.94,0.21
-0.05,0.06,1,0.07,-3.01,0.28
-0.06,0.06,1,0,-3.01,0.35
-0.06,0.07,1,0,-3.01,0.35
-0.06,0.06,1,0,-2.87,0.35
-0.06,0.06,1,0,-2.94,0.35
-0.05,0.07,1,0.07,-2.94,0.42
-0.05,0.07,1,0.07,-2.87,0.21
-0.05,0.07,1,0.07,-3.01,0.42
-0.05,0.07,1,0.21,-2.94,0.28
-0.06,0.07,1,0.14,-2.94,0.35
-0.05,0.06,1,0,-2.87,0.28
-0.05,0.07,1,0.07,-3.01,0.28
-0.05,0.07,1,0.07,-3.08,0.35
-0.06,0.07,1,0.07,-3.22,0.35
-0.06,0.06,1,-0.07,-2.94,0.42
-0.06,0.06,1,0.07,-2.8,0.35
-0.06,0.06,1,0,-2.94,0.28
-0.06,0.07,1,0.14,-3.08,0.35
-0.06,0.07,1,0,-2.87,0.21
-0.06,0.07,1,0,-2.87,0.28
-0.05,0.06,1,0,-2.87,0.21
-0.05,0.06,1,0,-3.01,0.28
-0.06,0.06,1,0.07,-2.94,0.35
-0.06,0.07,1,0,-2.8,0.35
-0.06,0.06,1.01,0.14,-3.15,0.28
-0.06,0.07,1,0.07,-2.8,0.42
-0.06,0.07,1,0,-3.01,0.35
-0.05,0.06,1,0.14,-2.8,0.49
-0.06,0.1,1.07,0.77,-3.29,0.35
-0.06,0.07,1,-1.33,-2.17,0
-0.06,0.06,1.03,0.35,-3.29,0.21
-0.05,0.07,1.04,1.19,-3.43,0.63
-0.06,0.07,1,-0.98,-2.38,0.21
-0.07,0.08,1.05,0.14,-2.45,0.21
-0.05,0.04,0.99,0.56,-3.08,0.49
-0.05,0.07,1,0,-3.01,0.21
-0.06,0.06,1.01,-0.07,-3.08,0.35
-0.06,0.06,0.97,0.56,-3.15,0.56
-0.06,0.07,1.01,-0.21,-3.01,0.42
-0.06,0.06,1.01,0,-3.08,0.21
-0.05,0.07,0.99,0.14,-2.87,0.35
-0.06,0.07,1.01,0.21,-3.08,0.35
-0.06,0.06,1,0,-2.94,0.35
-0.05,0.06,1,0.14,-2.94,0.35
-0.06,0.06,1.01,0,-3.01,0.21
-0.06,0.07,0.99,0.14,-2.94,0.35
-0.06,0.06,1.01,0.07,-2.94,0.49
-0.06,0.06,1,0,-3.22,0.35
-0.06,0.07,1,0.07,-2.94,0.35
-0.05,0.06,1.01,0.21,-3.08,0.42
-0.05,0.07,1,0,-3.01,0.49
-0.06,0.06,1,0.07,-3.01,0.49
-0.06,0.07,1.01,-0.07,-2.94,0.28
-0.05,0.06,1,-0.07,-2.66,0.28
-0.06,0.06,1,0.14,-3.08,0.35
-0.05,0.06,1.01,0.07,-3.08,0.35
-0.05,0.06,1,0.07,-3.01,0.42
-0.06,0.06,1.01,0.07,-3.01,0.35
-0.05,0.07,1,0.07,-3.01,0.21
-0.06,0.07,1,0,-2.87,0.35
-0.06,0.06,1.01,0,-2.87,0.28
-0.06,0.07,1,0,-3.01,0.28
-0.06,0.06,1,0.14,-3.01,0.35
-0.06,0.07,1.01,0.07,-3.08,0.49
-0.05,0.06,0.99,0.14,-2.87,0.21
-0.06,0.07,1,-0.07,-2.73,0.35
-0.05,0.05,1,-0.07,-3.15,0.77
-0.04,0.07,1.03,1.12,-3.57,0.7
-0.04,0.09,1.02,-0.49,-2.66,0.28
-0.05,0.07,0.99,1.12,-2.45,-0.14
-0.06,0.06,0.98,0.49,-2.87,0.28
-0.05,0.07,1,0.28,-3.01,0.35
-0.05,0.06,1,-0.42,-2.8,0.21
-0.05,0.07,1,-0.07,-2.66,0.21
-0.06,0.06,1,0.14,-3.01,0.42
-0.05,0.07,1,0,-3.01,0.35
-0.05,0.06,1,0.21,-2.94,0.63
-0.06,0.07,1.01,0.14,-3.15,0.35
-0.05,0.06,0.99,0,-2.94,0.35
-0.05,0.06,1,0.14,-2.8,0.42
-0.06,0.06,1,0,-3.08,0.35
-0.05,0.07,1,-0.14,-2.8,0.35
-0.06,0.07,1.01,0.14,-3.15,0.35
-0.06,0.06,1,0,-2.8,0.35
-0.05,0.07,1,0.14,-2.8,0.42
-0.05,0.06,1.01,0.07,-2.87,0.35
-0.06,0.06,1,0.07,-2.94,0.28
-0.05,0.07,1.01,-0.07,-2.87,0.35
-0.05,0.06,1,-0.07,-3.08,0.35
-0.05,0.06,1,0.21,-2.8,0.28
-0.05,0.06,1.01,0.07,-2.87,0.42
-0.06,0.07,0.88,-0.07,-2.8,0.14
-0.06,0.07,1,0.07,-3.01,0.35
-0.05,0.07,1.01,0.21,-3.01,0.28
-0.06,0.06,1,0,-2.94,0.35
-0.06,0.06,1,0,-3.08,0.42
-0.05,0.07,1.01,-0.07,-2.87,0.42
-0.06,0.06,1,0,-3.01,0.28
-0.06,0.07,1,0.07,-3.08,0.35
-0.06,0.06,1,-0.07,-2.87,0.28
-0.06,0.06,1,0.14,-2.94,0.35
-0.06,0.06,1.01,0,-2.87,0.42
-0.05,0.06,1,0.07,-2.94,0.28
-0.06,0.06,1,0,-3.01,0.35
-0.06,0.06,1,0.07,-2.94,0.21
-0.05,0.07,1,0.21,-3.01,0.42
-0.06,0.07,1.01,0.07,-2.94,0.21
-0.06,0.07,1,0.07,-2.94,0.28
-0.05,0.07,1,0.14,-2.87,0.21
-0.06,0.07,1.01,-0.07,-2.87,0.28
-0.05,0.07,1,0.07,-2.8,0.35
-0.05,0.06,1,0.07,-3.01,0.35
-0.05,0.06,1,0.07,-2.94,0.35
-0.05,0.06,1,0,-2.66,0.21
-0.06,0.06,1.01,0.07,-3.01,0.35
-0.06,0.07,1,0.14,-3.01,0.42
-0.05,0.07,1,0.07,-2.94,0.21
-0.05,0.07,1,0.07,-2.87,0.21
-0.06,0.07,1,0.07,-2.87,0.21
-0.06,0.07,1.01,0.07,-2.94,0.28
-0.05,0.07,1,0.14,-2.8,0.28
-0.06,0.07,1,0.14,-3.08,0.49
-0.05,0.06,1,0.07,-2.94,0.49
-0.05,0.07,1,0.07,-2.87,0.28
-0.05,0.06,1,0.07,-3.01,0.21
-0.05,0.06,1,0.07,-2.94,0.21
-0.06,0.06,1,0.07,-2.87,0.28
-0.06,0.07,1,0,-2.87,0.35
-0.05,0.06,1,0,-2.87,0.42
-0.05,0.06,1,0.07,-2.87,0.28
-0.05,0.07,1.01,0,-2.8,0.21
-0.06,0.06,1,0,-2.87,0.35
-0.06,0.06,1,0,-2.87,0.21
-0.06,0.06,1,0.14,-3.08,0.42
-0.05,0.06,1,-0.07,-2.8,0.49
-0.06,0.06,1,0,-2.94,0.35
-0.06,0.07,1,0.07,-2.87,0.35
-0.06,0.07,1,0.07,-2.8,0.28
-0.06,0.07,1,0,-2.87,0.35
-0.05,0.06,1,0.07,-3.08,0.21
-0.06,0.06,1,0.07,-2.87,0.21
-0.06,0.07,1,0.14,-3.08,0.35
-0.06,0.06,1,0.07,-3.08,0.35
-0.05,0.06,1,0.07,-2.94,0.56
-0.06,0.06,1,0,-3.01,0.35
-0.05,0.07,1,0.07,-3.08,0.42
-0.06,0.07,1,0,-2.94,0.28
-0.06,0.07,1,0.14,-3.08,0.35
-0.05,0.07,1,0.07,-3.01,0.28
-0.05,0.07,1,0.07,-2.94,0.35
-0.05,0.07,1,-0.07,-3.01,0.42
-0.05,0.07,1.01,0.14,-2.94,0.35
-0.06,0.07,1,0,-3.01,0.35
-0.05,0.07,1,0,-2.94,0.28
-0.05,0.06,1.01,0.07,-2.94,0.42
-0.06,0.06,1,0.14,-2.94,0.28
-0.06,0.06,1,0.14,-3.08,0.28
-0.05,0.06,1,0,-2.94,0.28
-0.05,0.06,1,0.14,-2.8,0.21
-0.05,0.06,1,0.07,-2.87,0.35
-0.06,0.07,1,0,-2.94,0.42
-0.06,0.07,1,0.14,-3.01,0.35
-0.05,0.06,1,0.07,-3.01,0.28
-0.05,0.07,1,0.07,-2.87,0.35
-0.06,0.06,1,0.14,-3.08,0.35
-0.06,0.07,1,0.14,-2.94,0.21
-0.06,0.07,1.04,-0.42,-2.8,0.14
-0.06,0.06,1.01,0.28,-3.01,0.14
-0.06,0.08,1.06,0.28,-3.08,0.28
-0.05,0.06,1.12,0,-2.87,0.28
-0.06,0.05,1.05,0.63,-3.29,0.49
-0.05,0.06,0.98,0,-3.01,0.35
-0.06,0.05,0.98,0.07,-3.15,0.42
-0.06,0.06,1,0.35,-3.08,0.21
-0.05,0.06,0.99,0,-2.94,0.49
-0.06,0.06,0.99,-0.07,-2.87,0.21
-0.06,0.08,0.9,-0.35,-2.8,0.21
-0.05,0.06,0.99,0.21,-2.94,0.35
-0.06,0.07,1.01,0,-2.94,0.35
-0.05,0.07,1,0.07,-2.87,0.49
-0.05,0.06,0.99,0.07,-2.87,0.35
-0.05,0.07,1.01,0.07,-2.87,0.42
-0.06,0.07,0.88,-0.07,-2.94,0.35
-0.05,0.06,1,0.07,-2.94,0.28
-0.05,0.06,1.01,0.07,-2.87,0.28
-0.05,0.06,0.99,0.07,-2.8,0.42
-0.06,0.07,1,0.07,-2.8,0.35
-0.06,0.06,1,0.07,-3.15,0.42
-0.05,0.06,1,0.07,-3.15,0.42
-0.05,0.07,1.01,-0.07,-2.8,0.35
-0.05,0.06,1,0.14,-3.01,0.35
-0.06,0.07,1,0,-3.01,0.42
-0.06,0.06,1.01,0.14,-2.87,0.42
-0.05,0.06,1,0.07,-3.01,0.28
-0.06,0.07,1,0.07,-2.94,0.35
-0.05,0.06,1.01,0.07,-2.8,0.28
-0.05,0.06,1,0.14,-2.94,0.35
-0.06,0.07,1.01,0.14,-2.87,0.42
-0.05,0.07,1.01,0,-2.73,0.21
-0.05,0.07,1,0.07,-2.94,0.35
-0.06,0.06,1,0.07,-2.87,0.28
-0.06,0.07,1,0,-3.15,0.21
-0.06,0.07,1,0,-2.87,0.35
-0.06,0.07,1.01,0.07,-2.94,0.35
-0.05,0.06,1,0.07,-3.01,0.35
-0.05,0.06,1,0.07,-2.87,0.28
-0.06,0.06,1,0.14,-3.01,0.42
-0.05,0.06,1,0,-2.8,0.35
-0.06,0.06,1,0.07,-2.87,0.42
-0.06,0.07,1,0.07,-2.8,0.35
-0.06,0.06,1,0.14,-2.94,0.35
-0.05,0.07,1,0.07,-3.01,0.35
-0.05,0.06,1,0,-2.87,0.42
-0.06,0.07,1,0.07,-2.87,0.35
-0.05,0.07,1,0.07,-3.01,0.42
-0.05,0.06,1,0,-2.94,0.28
-0.05,0.07,1,0.14,-2.94,0.35
-0.06,0.07,1,0.14,-2.94,0.28
-0.06,0.07,1,0,-2.8,0.35
-0.05,0.06,1,0.07,-2.94,0.14
-0.06,0.07,1,-0.07,-2.8,0.35
-0.05,0.07,1,0,-2.94,0.42
-0.06,0.07,1,0,-2.94,0.21
-0.06,0.07,1,0.07,-3.01,0.42
-0.05,0.06,1,0,-2.87,0.35
-0.05,0.07,1,0.07,-2.8,0.28
-0.06,0.07,1,0.07,-2.94,0.49
-0.06,0.07,1.01,0,-2.94,0.35
-0.05,0.06,1,0.07,-2.94,0.42
-0.06,0.07,1,0.14,-3.08,0.49
-0.05,0.06,1,0.14,-3.01,0.42
-0.06,0.07,1,0,-2.8,0.28
-0.06,0.07,1,0.07,-2.87,0.14
-0.05,0.07,1,0.07,-3.08,0.28
-0.06,0.06,1,0.07,-2.94,0.35
-0.06,0.07,1,0.07,-2.87,0.49
-0.05,0.07,1,-0.07,-2.66,0.28
-0.06,0.06,1,0.14,-2.87,0.49
-0.06,0.07,1,0.07,-3.08,0.49
-0.06,0.06,1,0.21,-3.08,0.35
-0.05,0.07,1,0.07,-2.94,0.28
-0.06,0.07,1,0,-2.87,0.35
-0.05,0.06,1,-0.07,-2.73,0.28
-0.06,0.06,1.01,0.07,-2.94,0.28
-0.06,0.06,1,0.07,-2.73,0.28
-0.06,0.07,1,0.07,-2.73,0.28
-0.06,0.06,1,0.14,-3.01,0.28
-0.06,0.07,1,0,-2.8,0.35
-0.06,0.06,1,0.14,-3.01,0.28
-0.05,0.06,1,0,-2.8,0.21
-0.06,0.06,1,0.14,-3.01,0.28
-0.06,0.06,1,0.07,-2.8,0.28
-0.05,0.06,1,0,-2.73,0.28
-0.06,0.06,1,0.07,-3.01,0.35
-0.05,0.06,1,0.07,-3.08,0.49
-0.06,0.07,1,0,-2.94,0.28
-0.05,0.06,1,0.07,-3.08,0.49
-0.05,0.06,1,0.14,-3.01,0.28
-0.05,0.07,1,0.07,-2.87,0.35
-0.05,0.07,1,0.07,-2.87,0.28
-0.06,0.07,1,0.14,-2.94,0.35
-0.06,0.07,1,0.07,-2.94,0.28
-0.05,0.06,1,0.07,-3.01,0.35
-0.06,0.07,1,0.07,-2.94,0.21
-0.06,0.06,1,0.07,-2.94,0.28
-0.05,0.07,1,0.07,-2.94,0.42
-0.05,0.07,1,0.07,-3.01,0.21
-0.06,0.07,1,0,-2.94,0.21
-0.06,0.07,1,0.07,-3.01,0.35
-0.06,0.06,1,0,-2.87,0.42
-0.05,0.07,1,0.07,-3.01,0.42
-0.06,0.06,1,-0.07,-2.87,0.28
-0.06,0.07,1,-0.07,-2.8,0.28
-0.06,0.07,1,0.07,-2.94,0.35
-0.06,0.06,1,0.07,-3.01,0.42
-0.06,0.06,1,0.07,-3.01,0.49
-0.05,0.06,1,0,-2.87,0.28
-0.06,0.07,1,0,-2.87,0.28
-0.06,0.06,1,0,-3.01,0.28
-0.05,0.06,1,0.14,-3.01,0.35
-0.06,0.07,1,0.07,-3.01,0.35
-0.06,0.07,1,0,-3.08,0.35
-0.06,0.06,1,0.07,-3.01,0.42
-0.06,0.07,1,0.07,-2.94,0.42
-0.05,0.06,1,0.21,-2.87,0.28
-0.06,0.06,1,17.85,-2.8,0.35
-0.06,0.06,1,0.07,-2.94,0.28
-0.06,0.06,1,0.07,-2.94,0.35
-0.06,0.06,1,0.14,-3.15,0.42
-0.05,0.06,1,0.07,-2.94,0.35
-0.06,0.06,1,0.07,-2.8,0.28
-0.06,0.07,1,0,-2.87,0.28
-0.06,0.07,1,0.07,-3.01,0.42
-0.06,0.07,1,0.07,-2.87,0.21
-0.05,0.07,1,0.07,-2.94,0.35
-0.05,0.06,1,0.07,-3.01,0.28
-0.05,0.07,1,0.07,-2.73,0.28
-0.06,0.07,1,0.07,-2.87,0.42
-0.06,0.06,1,0.07,-3.01,0.21
-0.06,0.07,1,0.14,-3.08,0.35
-0.06,0.06,1,0,-2.73,0.35
-0.05,0.07,1,0.14,-3.01,0.35
-0.06,0.07,1,0.07,-3.01,0.35
-0.06,0.07,1,0.07,-2.87,0.28
-0.06,0.06,1,0.14,-2.94,0.14
-0.05,0.06,1,0.07,-3.01,0.28
-0.06,0.07,1,0.07,-2.94,0.35
-0.05,0.07,1,0.07,-2.87,0.35
-0.06,0.07,1,0,-2.87,0.35
-0.06,0.06,1,0,-3.08,0.35
-0.06,0.07,1,0.07,-3.08,0.49
-0.05,0.07,1,0.14,-2.94,0.28
-0.05,0.06,1,0,-2.73,0.14
-0.06,0.06,1,0,-3.01,0.21
-0.06,0.06,1,0.07,-2.73,0.28
-0.06,0.06,1,0.07,-3.01,0.28
-0.06,0.06,1,0,-3.08,0.28
-0.06,0.06,1,0,-3.08,0.42
-0.06,0.07,1,0.14,-3.15,0.35
-0.05,0.07,1,0.07,-3.15,0.42
-0.06,0.07,1,0.14,-2.94,0.35
-0.05,0.07,1,0,-2.94,0.21
-0.05,0.06,1,0,-2.87,0.21
-0.06,0.07,1.01,0,-2.94,0.21
-0.06,0.07,1,-0.14,-2.87,0.21
-0.05,0.06,1,0.14,-3.01,0.42
-0.06,0.06,1,0.07,-2.94,0.07
-0.06,0.07,1,0.07,-3.08,0.14
-0.05,0.06,1,0.07,-2.94,0.21
-0.06,0.06,1,0.14,-3.08,0.28
-0.05,0.07,1,0,-2.94,0.35
-0.05,0.07,1,0,-2.87,0.42
-0.06,0.07,1,-0.07,-2.87,0.42
-0.06,0.06,1,0,-2.94,0.28
-0.06,0.06,1,0,-2.87,0.14
-0.05,0.06,1,0.07,-2.87,0.21
-0.05,0.07,0.87,0.07,-3.01,0.28
-0.06,0.07,1,0.07,-3.01,0.35
-0.06,0.06,1,0,-2.8,0.21
-0.06,0.06,1,0,-3.08,0.42
-0.06,0.07,1,0.07,-2.8,0.49
-0.06,0.07,1,0.07,-3.01,0.28
-0.05,0.07,1,0,-2.94,0.35
-0.05,0.07,1,-0.07,-2.94,0.35
-0.06,0.06,1,0,-2.87,0.42
-0.06,0.06,1,0.07,-3.01,0.35
-0.06,0.07,1,0.07,-2.8,0.42
-0.06,0.06,1,0,-2.87,0.28
-0.06,0.07,1,0.07,-2.94,0.35
-0.05,0.06,1,0.07,-3.08,0.28
-0.05,0.07,1,0.14,-2.94,0.28
-0.05,0.06,1,0.21,-3.08,0.42
-0.06,0.07,1.01,0,-2.87,0.21
-0.06,0.07,1,0.14,-3.01,0.35
-0.06,0.07,1,0.07,-3.01,0.42
-0.05,0.07,1,0.07,-2.94,0.28
-0.06,0.07,1,0.14,-2.8,0.42
-0.06,0.07,1,0.07,-2.87,0.28
-0.06,0.06,1,0.07,-2.87,0.35
-0.06,0.06,1,0.07,-3.01,0.28
-0.06,0.07,1,0.07,-3.01,0.35
-0.05,0.07,1,0,-3.01,0.35
-0.05,0.07,1,0.07,-3.08,0.28
-0.06,0.07,1,0.14,-3.15,0.56
-0.05,0.07,1,-0.07,-2.8,0.42
-0.06,0.06,1,0,-2.8,0.28
-0.05,0.06,1,0.07,-2.94,0.42
-0.06,0.07,1,0,-3.01,0.42
-0.05,0.06,1,0,-2.94,0.28
-0.06,0.06,1,0.07,-3.01,0.21
-0.06,0.07,1,0.07,-3.01,0.35
-0.06,0.07,1,0,-2.87,0.28
-0.06,0.07,1,0.07,-2.94,0.28
-0.05,0.07,1,0.07,-3.01,0.35
-0.06,0.06,1,0.14,-2.94,0.35
-0.05,0.07,1,0,-2.94,0.35
-0.05,0.07,1,-0.07,-2.8,0.21
-0.06,0.07,1,0.07,-2.94,0.28
-0.05,0.06,1,0,-2.94,0.42
-0.06,0.07,1,0.07,-2.94,0.35
-0.05,0.07,1,0,-2.94,0.28
-0.06,0.06,1,0,-3.01,0.28
-0.05,0.07,1,0.07,-2.94,0.35
-0.05,0.07,1,0.07,-2.87,0.14
-0.06,0.07,1,0.07,-3.01,0.42
-0.05,0.07,1,-0.07,-3.01,0.42
-0.05,0.07,1,0.21,-3.01,0.28
-0.05,0.07,1,0.14,-3.22,0.49
-0.05,0.06,1,0.07,-3.08,0.49
-0.05,0.06,1,0.14,-3.01,0.28
-0.05,0.06,1,0.14,-3.08,0.42
-0.06,0.06,1,0.07,-3.08,0.49
-0.06,0.06,1,0.07,-3.01,0.42
-0.06,0.06,1,0.14,-3.15,0.42
-0.06,0.07,1,0,-2.8,0.42
-0.05,0.07,1,0,-2.73,0.21
-0.98,0.3,0.07,-13.23,5.25,-5.11
-1,0.26,0.07,-9.1,4.13,-4.62
-1,0.22,0.07,-6.16,2.52,-3.85
-1.01,0.2,0.08,-2.03,1.47,-3.22
-1.03,0.18,0.08,0.7,0.56,-2.59
-1.04,0.17,0.07,7.42,-2.73,-2.24
-1.04,0.18,0.06,12.81,-6.09,-1.96
-1.02,0.21,0.06,17.36,-9.66,-2.03
-1,0.26,0.06,21.14,-11.55,-2.87
-0.98,0.28,0.05,21.21,-11.48,-3.29
-0.96,0.33,0.03,21.14,-12.04,-3.85
-0.93,0.36,0.03,18.83,-11.97,-4.13
-0.92,0.4,0.02,15.96,-11.48,-3.29
-0.91,0.42,0.02,13.65,-9.59,-2.45
-0.89,0.46,0,14.21,-8.89,-2.17
-0.89,0.47,0.01,13.16,-8.75,-1.33
-0.89,0.47,0.02,11.48,-7.28,0.21
-0.88,0.47,0.02,8.75,-4.9,1.47
-0.89,0.46,0.03,5.88,-3.15,2.31
-0.9,0.44,0.03,3.64,-1.89,3.01
-0.91,0.42,0.03,0.91,-1.68,3.15
-0.92,0.38,0.04,-1.33,-1.4,3.08
-0.94,0.36,0.05,-2.94,-1.05,2.8
-0.95,0.33,0.07,-4.27,-0.63,1.47
-0.98,0.31,0.08,-5.25,-0.35,0.91
-0.99,0.3,0.08,-5.39,-0.63,0.07
-1,0.29,0.08,-5.04,-1.4,-0.98
-1.01,0.28,0.08,-3.99,-2.1,-0.91
-1.01,0.27,0.08,-3.08,-3.08,-1.19
-1.01,0.27,0.07,-1.75,-3.71,-1.33
-0.99,0.28,0.07,0.07,-3.64,-1.96
-0.98,0.29,0.06,2.03,-3.43,-2.38
-0.96,0.31,0.06,3.43,-2.52,-2.66
-0.96,0.33,0.06,4.06,-1.68,-2.52
-0.95,0.35,0.05,2.45,-1.26,-2.94
-0.95,0.35,0.06,0.56,-0.7,-3.01
-0.95,0.34,0.07,-2.8,1.33,-2.17
-0.96,0.37,0.05,-4.55,1.19,-3.5
-0.97,0.36,0.05,-5.53,0.56,-3.99
-0.98,0.36,0.03,-6.93,-0.49,-3.85
-0.97,0.35,0.03,-8.26,-2.31,-3.5
-0.94,0.36,0.09,-12.53,1.47,-4.9
-0.93,0.33,0.05,-11.62,2.73,-5.81
-0.95,0.32,0.04,-12.53,2.66,-6.44
-0.97,0.31,0.05,-12.6,2.8,-6.93
-0.98,0.29,0.05,-12.95,1.96,-7
-0.99,0.29,0.05,-10.99,0.77,-6.93
-0.99,0.28,0.06,-9.73,0.21,-6.79
-0.98,0.3,0.07,-9.1,0.14,-7.35
-0.96,0.3,0.08,-9.66,2.59,-8.33
-0.97,0.28,0.08,-9.73,5.32,-8.82
-0.97,0.27,0.08,-8.54,7.07,-8.54
-0.97,0.27,0.07,-8.33,11.9,-10.15
-0.97,0.29,0.06,-8.05,14.28,-11.9
-0.97,0.3,0.07,-11.27,18.41,-15.61
-0.94,0.32,0.07,-12.6,22.4,-17.15
-0.96,0.31,0.05,-18.9,27.65,-20.93
-0.96,0.35,0.05,-18.62,29.47,-24.08
-0.98,0.34,0.02,-24.08,33.11,-29.54
-0.97,0.3,0.01,-27.58,37.73,-27.72
-0.97,0.35,0.1,-41.51,52.85,-22.26
-1.08,0.32,-0.11,-24.43,24.36,-19.74
-1.04,0.35,-0.06,-9.31,7.63,-20.37
-0.95,0.32,0,-10.71,5.53,-19.25
-0.99,0.23,-0.04,-7.91,0.21,-12.6
-0.97,0.23,-0.01,-8.4,-2.03,-4.97
-0.96,0.3,-0.02,-9.94,-2.38,-4.83
-0.96,0.29,-0.01,-11.62,-1.47,-5.25
-0.95,0.31,0,-15.12,1.33,-8.47
-0.97,0.33,0,-18.69,4.27,-17.64
-0.98,0.27,-0.01,-20.02,7.7,-19.88
-0.97,0.35,0.02,-25.9,10.36,-25.48
-0.96,0.36,0.02,-34.65,18.76,-34.23
-1.01,0.26,-0.01,-35.42,17.43,-38.22
-0.95,0.27,0,-28.7,11.48,-40.04
-0.94,0.31,-0.04,-27.51,8.68,-43.82
-0.92,0.37,0.06,-39.9,14.21,-47.67
-0.93,0.25,-0.15,-49.7,17.5,-52.64
-1.02,0.25,0.02,-38.64,7.49,-53.34
-1.01,0.24,-0.02,-30.87,4.55,-58.45
-1.03,0.13,-0.03,-31.57,4.13,-49.28
-1.03,0.11,0,-28.7,5.32,-36.96
-0.99,0.18,-0.01,-30.8,6.09,-30.31
-1,0.26,-0.04,-33.46,5.53,-33.53
-0.96,0.22,-0.04,-34.16,3.36,-30.24
-1.01,0.17,-0.03,-34.72,4.13,-23.73
-1,0.2,-0.01,-34.37,5.46,-20.93
-1,0.17,-0.05,-32.83,3.36,-16.1
-0.99,0.17,-0.02,-32.76,2.24,-11.69
-1,0.17,-0.03,-32.48,0.91,-8.96
-1.01,0.18,-0.02,-33.32,-0.63,-5.74
-1.01,0.18,-0.01,-33.53,-1.54,-3.08
-1.03,0.15,0,-32.48,-3.29,1.05
-1.04,0.15,0.02,-30.03,-4.27,3.57
-1.04,0.18,0.01,-25.69,-4.83,4.69
-1.02,0.21,0.02,-22.47,-5.04,5.74
-1.01,0.24,0.02,-20.51,-6.02,6.93
-1.02,0.26,0.01,-18.34,-7.07,8.4
-1.03,0.28,0.01,-15.12,-7.35,9.17
-1.05,0.33,0.01,-13.02,-7,9.24
-1.03,0.29,0,-12.6,-8.75,9.73
-1.01,0.28,0.02,-16.66,-9.45,12.74
-0.99,0.27,0.05,-19.46,-10.57,16.1
-1.04,0.26,0.06,-20.58,-2.73,22.96
-1.03,0.33,0.04,-24.57,-12.95,27.09
-1,0.27,-0.03,-22.82,-14.14,29.47
-0.97,0.28,0,-26.81,-14.14,32.76
-0.97,0.29,0,-23.8,-13.44,34.93
-0.99,0.29,0,-17.5,-10.78,18.2
-1,0.26,-0.02,-17.57,-3.08,33.67
-1,0.31,0.03,-18.2,-7.35,37.38
-1.06,0.28,0.01,-19.53,-5.95,35.63
-1.02,0.26,0.02,-20.79,-2.73,35.49
-1.01,0.23,0.02,-29.12,5.53,35.91
-1.01,0.24,0.04,-34.23,6.51,41.65
-0.99,0.24,0.03,-40.88,8.82,39.41
-1,0.22,0.06,-44.94,11.69,40.39
-1,0.22,0.02,-56.49,17.5,38.78
-1.01,0.15,0.03,-40.6,16.87,38.57
-0.98,0.24,0.01,-36.19,17.01,39.76
-0.93,0.22,-0.03,-38.57,15.05,42.84
-0.88,0.25,-0.03,-39.83,16.1,42.7
-0.86,0.26,-0.02,-44.17,18.06,44.31
-0.9,0.22,-0.04,-45.71,21.49,46.27
-0.89,0.27,-0.05,-40.46,24.99,45.01
-0.88,0.27,-0.03,-38.5,26.95,44.1
-0.88,0.28,-0.04,-44.17,31.08,43.96
-0.9,0.33,-0.04,-58.73,32.27,43.12
-0.94,0.31,-0.07,-62.16,33.11,40.46
-1.01,0.39,-0.03,-52.64,36.75,31.08
-0.98,0.44,-0.1,-58.17,39.62,29.33
-1,0.35,-0.11,-69.86,36.96,27.16
-0.99,0.34,-0.03,-71.54,36.05,28.14
-1,0.33,-0.06,-74.97,34.23,30.87
-1,0.35,-0.04,-75.46,30.45,32.48
-1.04,0.38,-0.04,-74.34,27.09,33.81
-1.06,0.34,-0.02,-82.6,28.7,37.03
-1.06,0.38,-0.05,-80.64,27.65,30.17
-1.07,0.45,-0.03,-76.58,27.72,19.32
-0.97,0.24,0.09,-71.4,49.21,25.62
-0.98,0.24,-0.01,-77.28,43.4,30.45
-0.96,0.22,0,-74.06,32.13,32.06
-0.96,0.22,0.03,-64.75,28.91,32.76
-0.91,0.34,-0.01,-59.5,24.36,36.12
-0.9,0.33,-0.02,-43.82,18.55,36.96
-0.9,0.32,-0.04,-36.61,17.64,39.62
-0.85,0.39,0.03,-31.99,20.58,41.58
-0.89,0.48,-0.06,-32.69,21.21,42.7
-0.92,0.48,-0.08,-32.48,23.1,43.75
-0.92,0.45,-0.11,-33.53,25.48,45.71
-0.91,0.45,-0.15,-36.68,26.88,44.94
-0.83,0.49,-0.08,-39.55,28.7,39.76
-0.85,0.48,-0.06,-35.91,28.28,34.93
-0.81,0.5,-0.05,-30.66,29.61,29.61
-0.83,0.47,-0.05,-28.42,29.96,28.77
-0.83,0.47,-0.03,-29.82,30.59,29.89
-0.84,0.45,-0.07,-33.6,30.1,32.62
-0.83,0.48,0,-36.47,31.43,35.49
-0.89,0.48,-0.06,-37.52,27.37,35.91
-0.86,0.49,-0.07,-41.86,19.04,35.77
-0.85,0.54,-0.09,-48.58,11.69,36.68
-0.85,0.51,-0.04,-49.14,1.19,36.68
-0.8,0.51,-0.08,-56.14,-2.45,38.29
-0.8,0.51,-0.04,-58.87,-0.56,41.09
-0.79,0.57,0.03,-56.42,3.15,36.26
-0.79,0.53,0.02,-53.83,8.26,36.4
-0.85,0.55,0.05,-33.67,13.65,31.57
-0.88,0.55,0,-24.85,16.52,30.38
-0.89,0.59,-0.02,-17.08,21.28,31.71
-0.92,0.59,-0.03,-14.91,25.27,33.6
-0.87,0.61,-0.02,-19.53,24.71,35.91
-0.85,0.64,-0.02,-18.27,25.76,33.25
-0.82,0.62,-0.05,-19.39,24.29,31.85
-0.78,0.65,-0.06,-20.72,21.98,27.86
-0.81,0.63,-0.07,-18.62,18.76,22.54
-0.8,0.64,-0.05,-18.34,16.52,15.47
-0.81,0.64,-0.02,-16.59,12.95,8.26
-0.81,0.64,-0.02,-14.35,10.78,1.96
-0.81,0.61,-0.03,-13.65,9.94,-1.26
-0.8,0.62,-0.01,-10.78,14.42,-3.71
-0.75,0.61,-0.04,-7.07,20.16,-3.01
-0.72,0.58,-0.02,-7.21,27.3,-2.45
-0.73,0.58,-0.05,-10.08,29.26,-0.49
-0.75,0.56,-0.05,-13.58,30.66,1.33
-0.78,0.53,-0.05,-13.09,29.96,2.66
-0.82,0.53,-0.03,-16.66,28.98,3.5
-0.81,0.54,-0.02,-16.87,27.51,2.38
-0.83,0.53,-0.01,-11.2,25.41,5.74
-0.79,0.57,-0.05,-4.06,22.68,4.97
-0.79,0.56,-0.06,-0.07,19.53,5.88
-0.78,0.58,-0.11,-1.82,14.77,6.58
-0.74,0.59,-0.08,-2.73,14.28,5.25
-0.75,0.58,-0.04,-7.98,13.02,10.08
-0.72,0.62,-0.06,-13.3,8.89,8.19
-0.66,0.64,-0.01,-11.97,10.29,6.58
-0.79,0.6,-0.1,-16.03,2.1,3.92
-0.74,0.61,-0.02,-12.04,4.27,-4.83
-0.73,0.61,-0.03,-10.29,5.39,-10.71
-0.74,0.63,-0.01,-7.77,4.62,-13.79
-0.78,0.64,-0.05,-1.61,9.31,-20.02
-0.76,0.62,-0.05,2.1,11.2,-25.13
-0.76,0.62,-0.05,1.61,12.53,-29.4
-0.76,0.65,-0.05,-2.45,15.75,-35.56
-0.79,0.66,-0.06,-8.4,18.83,-42.77
-0.83,0.67,-0.08,-12.67,20.51,-45.22
-0.84,0.66,-0.06,-20.37,17.15,-40.39
-0.92,0.63,-0.1,-23.8,19.67,-38.43
-0.97,0.63,-0.08,-21.21,23.87,-35
-1,0.64,-0.08,-21.07,17.01,-29.4
-0.96,0.69,-0.01,-18.69,12.53,-22.33
-1.05,0.66,-0.03,-12.67,9.66,-17.85
-0.99,0.61,-0.06,-5.88,6.23,-8.75
-0.96,0.61,-0.09,7.63,2.38,-6.93
-0.91,0.56,-0.16,19.46,3.01,-3.64
-0.85,0.55,-0.13,25.13,5.18,-3.99
-0.87,0.54,-0.14,23.1,4.9,-5.46
-0.85,0.51,-0.11,15.26,4.27,-6.72
-0.86,0.46,-0.14,9.52,1.68,-8.89
-0.88,0.46,-0.1,3.99,1.47,-11.97
-0.89,0.48,-0.08,1.54,1.54,-15.68
-0.95,0.41,-0.1,3.85,1.33,-20.51
-0.93,0.46,-0.1,3.57,6.51,-26.53
-0.96,0.45,-0.21,8.19,11.76,-32.06
-0.88,0.44,-0.11,12.95,14.77,-34.79
-0.83,0.45,-0.24,13.86,13.65,-36.33
-0.86,0.42,-0.17,15.12,9.66,-41.51
-0.89,0.41,-0.16,16.1,7,-45.36
-0.93,0.38,-0.14,14.91,6.72,-47.46
-0.94,0.37,-0.15,13.37,9.8,-44.31
-0.9,0.34,-0.16,21.07,14.7,-43.54
-0.93,0.42,-0.17,20.37,21.77,-42.42
-0.93,0.44,-0.18,10.5,28.98,-35.77
-0.95,0.43,-0.13,9.52,29.96,-34.86
-0.84,0.43,-0.22,9.03,30.03,-30.38
-0.86,0.48,-0.22,8.26,27.51,-29.61
-0.83,0.49,-0.21,1.47,26.53,-28.84
-0.83,0.49,-0.23,-2.1,25.2,-28.14
-0.82,0.46,-0.26,-4.83,23.94,-24.64
-0.83,0.43,-0.26,-3.43,21.7,-17.71
-0.94,0.35,-0.23,-0.42,19.81,-16.03
-0.93,0.37,-0.28,6.72,16.1,-13.58
-0.96,0.36,-0.27,15.68,13.58,-11.9
-1,0.35,-0.28,21,9.45,-10.15
-0.99,0.37,-0.28,26.67,5.53,-9.94
-0.96,0.32,-0.3,31.64,-1.05,-5.46
-0.93,0.32,-0.29,34.93,-5.39,-5.32
-0.93,0.33,-0.25,40.6,-6.3,-7.14
-0.92,0.31,-0.24,44.94,-6.86,-7.07
-0.94,0.31,-0.24,48.65,-5.11,-8.96
-0.9,0.31,-0.26,50.4,-1.19,-9.52
-0.92,0.33,-0.26,51.52,0.98,-10.78
-0.9,0.32,-0.27,51.73,3.22,-10.08
-0.92,0.34,-0.29,49.49,3.01,-11.06
-0.92,0.34,-0.3,50.96,3.64,-13.02
-0.88,0.35,-0.32,55.09,4.9,-16.52
-0.89,0.36,-0.3,53.27,7.21,-19.04
-0.88,0.38,-0.31,51.52,9.1,-19.88
-0.86,0.39,-0.33,50.33,8.68,-18.83
-0.84,0.37,-0.34,52.29,5.25,-15.82
-0.84,0.36,-0.33,48.86,2.03,-11.55
-0.86,0.35,-0.32,42.35,-1.96,-4.76
-0.87,0.36,-0.33,39.41,-3.71,-1.4
-0.89,0.36,-0.31,40.88,-4.76,-0.21
-0.92,0.34,-0.31,45.22,-4.83,-0.98
-0.91,0.33,-0.31,44.94,-4.48,-1.61
-0.93,0.31,-0.3,52.15,-3.85,-4.06
-0.92,0.27,-0.26,53.62,-5.39,-7.49
-0.93,0.33,-0.31,55.58,-4.76,-9.38
-0.93,0.34,-0.31,54.53,-6.09,-9.31
-0.92,0.35,-0.3,56.56,-6.37,-9.45
-0.92,0.37,-0.29,55.51,-8.26,-7.35
-0.93,0.38,-0.28,55.58,-8.47,-5.81
-0.91,0.39,-0.25,56.77,-9.94,-4.34
-0.92,0.41,-0.26,55.16,-11.9,-2.73
-0.91,0.41,-0.25,53.06,-12.39,-1.05
-0.93,0.41,-0.25,49.98,-13.23,0.14
-0.92,0.39,-0.23,46.13,-14.7,1.19
-0.9,0.44,-0.26,43.19,-13.58,-0.07
-0.9,0.45,-0.21,38.99,-10.36,-3.78
-0.88,0.48,-0.22,41.02,-4.69,-7.77
-0.86,0.48,-0.24,45.01,-1.96,-12.04
-0.86,0.48,-0.24,48.86,-1.33,-13.72
-0.88,0.46,-0.23,49.91,-3.15,-14.77
-0.88,0.46,-0.17,48.51,-9.8,-12.18
-0.92,0.39,-0.23,51.38,-12.88,-14.98
-0.88,0.39,-0.21,47.25,-21.7,-13.3
-0.84,0.35,-0.24,39.9,-27.86,-9.38
-0.85,0.34,-0.31,33.39,-36.47,-4.62
-0.86,0.31,-0.3,27.09,-43.54,1.96
-0.91,0.28,-0.35,25.76,-53.97,12.67
-0.91,0.22,-0.27,26.53,-54.95,24.99
-0.97,0.3,-0.42,32.13,-71.75,28.21
-1.15,0.31,-0.2,31.43,-66.01,36.61
-1,0.33,-0.46,35.49,-82.11,45.36
-1.2,0.29,-0.16,36.12,-79.31,50.47
-1.31,0.28,-0.15,36.12,-83.23,49.84
-1.28,0.28,-0.15,32.83,-88.06,52.43
-1.21,0.27,-0.14,31.64,-94.08,53.69
-1.14,0.29,-0.12,28.98,-100.1,55.09
-1.04,0.29,-0.12,31.15,-105.35,57.75
-1.01,0.23,-0.09,33.88,-112.42,66.92
-0.99,0.23,-0.05,28.7,-109.9,77.91
-1,0.21,-0.02,37.66,-107.73,87.15
-1.01,0.19,0.02,37.73,-105.35,97.65
-1.03,0.25,0,24.15,-104.58,103.46
-1.01,0.23,-0.04,5.67,-103.25,103.46
-0.95,0.27,-0.13,-10.99,-95.55,98.56
-0.93,0.29,-0.22,-6.93,-86.24,91.7
-0.93,0.3,-0.21,-2.17,-74.06,86.31
-0.9,0.36,-0.16,22.75,-64.89,74.06
-0.9,0.37,-0.13,37.94,-53.55,78.47
-0.92,0.4,-0.08,50.54,-43.61,72.38
-0.93,0.38,-0.04,65.03,-37.45,67.48
-0.93,0.36,-0.07,63.49,-33.67,64.12
-0.89,0.4,-0.1,58.87,-35.42,54.18
-0.92,0.45,-0.03,55.79,-27.09,44.17
-0.85,0.42,-0.03,48.3,-20.16,38.57
-0.69,0.5,-0.14,37.66,-19.04,39.62
-0.82,0.49,-0.07,31.57,-22.33,27.16
-0.82,0.75,-0.06,27.3,-24.57,12.46
-0.46,0.74,0.08,26.04,-4.83,-7.14
-1.2,0.37,0.08,34.37,10.15,5.53
-0.8,0.46,0.1,32.13,19.81,4.06
-0.74,0.44,0,24.71,19.88,3.08
-0.84,0.48,-0.17,15.68,6.09,-8.68
-0.64,0.44,0.06,20.16,27.02,-11.41
-0.71,0.36,-0.03,10.85,28.63,-11.34
-0.78,0.4,-0.13,17.15,19.39,-12.53
-0.81,0.38,-0.2,-2.59,0.84,-13.58
-0.82,0.44,-0.09,-8.33,-12.18,-25.27
-0.89,0.41,-0.12,-13.86,-14.49,-29.26
-0.9,0.41,-0.08,-17.43,-20.51,-30.94
-0.88,0.5,0.01,-21.42,-20.72,-32.55
-0.92,0.56,0.11,-18.55,-16.03,-30.87
-0.93,0.64,0.11,-11.34,-9.87,-24.36
-0.9,0.7,0.06,-0.63,-10.64,-14.98
-0.84,0.73,-0.07,16.87,-15.47,-5.11
-0.83,0.8,-0.07,32.69,-18.9,26.04
-0.74,0.8,-0.06,47.67,-18.34,43.61
-0.72,0.7,-0.01,62.3,-16.03,50.89
-0.72,0.59,0.09,60.2,-13.02,50.05
-0.71,0.76,0.2,30.52,-5.32,12.88
-0.56,0.28,0.11,-4.62,5.88,-3.78
-0.85,0.31,0.1,-15.54,7.42,-5.88
-0.92,0.23,-0.03,-17.29,13.51,-16.38
-0.98,0.33,-0.13,-21.35,22.54,-24.36
-1.16,0.35,-0.15,-22.19,34.72,-32.55
-1.01,0.46,-0.11,-26.46,47.18,-37.8
-0.99,0.54,-0.12,-27.72,51.52,-35.14
-0.98,0.59,-0.14,-21.98,52.43,-28.77
-0.93,0.6,-0.44,-16.31,22.33,-22.68
-1.04,0.52,-0.08,-4.13,15.54,-16.52
-1.07,0.44,-0.09,0.84,14,-16.87
-1.09,0.32,-0.1,1.82,13.51,-18.34
-1.04,0.25,-0.07,-5.67,11.2,-24.92
-1.01,0.2,-0.09,-11.34,8.12,-31.08
-0.96,0.21,-0.12,-18.48,5.39,-37.66
-0.93,0.22,-0.16,-15.96,2.94,-48.37
-0.89,0.22,-0.21,-9.59,1.68,-56.7
-0.88,0.14,-0.24,-2.87,2.03,-53.62
-0.82,0.2,-0.23,14.35,19.18,-38.5
-0.84,0.36,-0.31,27.58,21.91,-39.62
-0.84,0.43,-0.27,33.11,25.83,-33.39
-0.86,0.51,-0.22,29.05,29.19,-25.55
-0.86,0.56,-0.18,21.07,31.99,-18.76
-0.89,0.55,-0.12,11.9,32.2,-16.24
-0.93,0.5,-0.11,6.72,29.4,-14.42
-0.96,0.46,-0.1,4.27,25.69,-14.63
-0.97,0.42,-0.12,3.36,22.89,-16.45
-0.96,0.4,-0.15,2.45,21.49,-18.76
-0.94,0.37,-0.19,2.03,20.02,-21.49
-0.93,0.36,-0.22,3.78,18.62,-22.68
-0.91,0.36,-0.24,7.63,17.5,-20.93
-0.9,0.37,-0.26,14.14,16.87,-19.39
-0.89,0.37,-0.28,20.72,14.49,-14.98
-0.89,0.38,-0.3,25.48,11.55,-10.22
-0.9,0.41,-0.28,29.47,9.45,-6.79
-0.91,0.38,-0.25,33.04,6.51,-3.15
-0.94,0.38,-0.23,35.7,3.78,-1.4
-0.94,0.37,-0.22,36.19,1.61,0.63
-0.94,0.36,-0.22,36.05,0.49,1.54
-0.93,0.35,-0.23,35.28,0,2.24
-0.92,0.34,-0.25,33.39,-0.63,2.38
-0.92,0.34,-0.27,32.9,-0.84,2.24
-0.92,0.34,-0.27,32.69,0.28,1.12
-0.9,0.33,-0.26,28.56,1.12,-0.21
-0.9,0.33,-0.27,25.13,1.47,-1.05
-0.9,0.33,-0.26,22.19,1.61,-2.31
-0.89,0.34,-0.28,19.74,2.31,-3.71
-0.89,0.36,-0.29,17.43,3.36,-4.48
-0.89,0.36,-0.3,15.26,5.25,-5.39
-0.92,0.37,-0.31,13.58,6.23,-5.88
-0.94,0.36,-0.32,13.37,6.51,-5.74
-0.93,0.35,-0.3,13.37,6.23,-5.46
-0.91,0.34,-0.29,12.88,6.3,-6.23
-0.91,0.33,-0.28,12.6,5.32,-6.51
-0.9,0.35,-0.25,11.34,5.95,-7.98
-0.92,0.33,-0.28,9.94,5.46,-8.12
-0.92,0.33,-0.28,10.5,4.27,-8.26
-0.94,0.34,-0.28,11.9,3.36,-8.61
-0.93,0.43,-0.25,9.45,-0.7,-6.09
-0.96,0.32,-0.29,14.84,2.1,-8.68
-0.93,0.36,-0.28,15.33,-0.21,-6.23
-0.92,0.35,-0.26,14.77,-0.49,-4.83
-0.91,0.34,-0.26,14.63,-0.77,-3.99
-0.9,0.33,-0.26,14.7,-2.24,-2.8
-0.89,0.32,-0.26,14.28,-2.94,-2.24
-0.89,0.31,-0.26,13.51,-3.36,-1.82
-0.89,0.31,-0.27,13.37,-3.08,-2.1
-0.91,0.32,-0.29,14.14,-2.8,-2.87
-0.93,0.33,-0.29,15.33,-2.59,-3.5
-0.94,0.35,-0.29,16.31,-2.31,-4.62
-0.94,0.35,-0.28,16.52,-2.52,-5.32
-0.92,0.38,-0.27,15.54,-3.57,-4.97
-0.92,0.36,-0.27,15.68,-2.94,-5.88
-0.91,0.36,-0.26,15.75,-3.22,-5.95
-0.91,0.35,-0.26,15.54,-3.99,-5.39
-0.91,0.35,-0.25,15.05,-4.41,-4.97
-0.91,0.35,-0.26,14.49,-4.69,-4.69
-0.93,0.33,-0.25,14.63,-5.39,-3.99
-0.94,0.33,-0.25,14.84,-6.23,-3.78
-0.95,0.33,-0.25,14.77,-6.58,-3.22
-0.94,0.33,-0.25,13.93,-7.49,-2.87
-0.93,0.32,-0.26,13.09,-8.19,-2.31
-0.92,0.33,-0.26,11.41,-7.84,-2.59
-0.91,0.33,-0.29,9.87,-7.21,-2.38
-0.91,0.32,-0.31,7.07,-6.09,-2.17
-0.92,0.32,-0.34,5.32,-5.32,-2.38
-0.93,0.33,-0.34,3.92,-4.55,-1.75
-0.93,0.33,-0.34,2.52,-4.2,-1.12
-0.95,0.32,-0.33,2.38,-4.76,-1.19
-0.98,0.3,-0.32,2.31,-5.04,-0.84
-1,0.26,-0.3,3.08,-6.23,-1.19
-1.01,0.24,-0.28,4.48,-7.28,-2.31
-1.01,0.22,-0.26,5.32,-7.98,-3.99
-1.01,0.21,-0.25,6.09,-7.98,-6.3
-1,0.21,-0.25,5.74,-7.91,-9.1
-0.97,0.22,-0.25,6.02,-7.91,-10.71
-0.94,0.25,-0.26,5.46,-7.28,-11.76
-0.91,0.27,-0.27,5.04,-6.65,-11.55
-0.9,0.28,-0.28,5.11,-5.81,-10.5
-0.9,0.28,-0.28,5.04,-4.83,-8.96
-0.91,0.27,-0.28,5.11,-4.55,-7.49
-0.93,0.25,-0.27,4.69,-4.55,-6.09
-0.95,0.24,-0.26,4.13,-4.48,-5.18
-1,0.19,-0.24,4.69,-8.82,-4.69
-0.99,0.21,-0.27,5.46,-4.9,-4.69
-0.98,0.22,-0.24,5.88,-6.86,-4.9
-0.98,0.2,-0.26,7.77,-8.05,-4.62
-0.97,0.22,-0.25,8.26,-9.1,-5.04
-0.97,0.23,-0.26,9.1,-9.8,-4.97
-0.96,0.24,-0.26,8.96,-10.15,-4.62
-0.95,0.26,-0.27,8.61,-10.71,-4.13
-0.93,0.27,-0.27,7.91,-10.78,-3.64
-0.93,0.27,-0.27,7.42,-10.71,-3.08
-0.94,0.28,-0.26,6.79,-10.22,-2.38
-0.94,0.28,-0.26,6.02,-10.15,-1.4
-0.95,0.28,-0.26,5.53,-10.15,-0.49
-0.96,0.26,-0.26,4.83,-10.22,-0.21
-0.96,0.25,-0.25,4.97,-10.43,-0.14
-0.95,0.24,-0.24,4.48,-11.06,-0.42
-0.94,0.24,-0.24,3.57,-11.48,-0.98
-0.94,0.24,-0.24,2.87,-11.76,-0.77
-0.93,0.25,-0.24,1.4,-11.9,-0.77
-0.93,0.26,-0.23,0.14,-12.18,-0.35
-0.94,0.26,-0.23,-0.63,-12.46,0
-0.94,0.27,-0.23,-1.96,-12.39,0.7
-0.95,0.26,-0.23,-2.1,-12.46,1.33
-0.95,0.26,-0.23,-2.1,-13.16,2.24
-0.94,0.26,-0.23,-2.45,-13.44,3.5
-0.94,0.25,-0.23,-3.01,-14,5.18
-0.93,0.24,-0.22,-3.01,-14.91,6.37
-0.93,0.25,-0.21,-2.8,-15.54,7.56
-0.95,0.24,-0.2,-2.24,-16.66,9.31
-0.96,0.25,-0.2,-2.73,-17.01,9.8
-0.96,0.26,-0.19,-2.45,-18.2,10.78
-0.97,0.27,-0.2,-2.8,-18.83,10.99
-0.96,0.28,-0.2,-3.64,-18.55,11.48
-0.94,0.27,-0.24,-6.09,-18.2,11.97
-0.94,0.28,-0.23,-7.77,-18.06,12.6
-0.93,0.28,-0.2,-8.82,-17.01,12.53
-0.95,0.26,-0.19,-8.26,-17.99,12.74
-0.97,0.26,-0.17,-7.7,-19.32,12.18
-0.98,0.26,-0.17,-7.28,-18.83,11.13
-0.98,0.27,-0.19,-6.58,-18.48,9.59
-0.96,0.29,-0.19,-6.37,-17.57,8.61
-0.94,0.28,-0.23,-7.07,-14.77,7.98
-0.92,0.28,-0.22,-8.12,-13.23,7.77
-0.91,0.28,-0.21,-9.1,-11.83,7.77
-0.91,0.26,-0.23,-7.91,-11.41,7.77
-0.94,0.26,-0.21,-6.3,-10.64,6.93
-0.97,0.26,-0.18,-3.85,-8.96,3.43
-0.99,0.23,-0.2,-0.21,-5.53,-0.21
-0.99,0.2,-0.23,4.48,-3.36,-5.04
-0.96,0.19,-0.25,8.19,0.28,-8.89
-0.94,0.19,-0.28,10.08,3.01,-11.9
-0.92,0.19,-0.28,11.34,5.46,-13.86
-0.93,0.2,-0.27,14.14,6.51,-15.12
-0.93,0.21,-0.24,14.21,9.38,-15.61
-0.95,0.2,-0.21,15.54,9.73,-15.4
-0.98,0.21,-0.19,16.38,9.45,-14.56
-0.99,0.22,-0.17,16.1,7.35,-13.65
-1.01,0.23,-0.17,15.54,5.74,-12.32
-1.01,0.24,-0.18,15.26,3.43,-10.36
-1,0.24,-0.18,15.12,1.4,-9.17
-0.99,0.25,-0.19,15.26,-0.42,-8.26
-1,0.25,-0.19,14.91,-2.17,-6.65
-0.98,0.27,-0.19,13.72,-3.99,-5.6
-0.96,0.28,-0.18,11.48,-4.76,-4.55
-0.96,0.29,-0.18,9.17,-5.95,-2.73
-0.95,0.29,-0.2,7.42,-6.51,-0.98
-0.96,0.3,-0.2,6.93,-6.79,0.49
-0.97,0.3,-0.19,6.86,-7.14,1.47
-0.97,0.3,-0.19,7.07,-7.35,1.82
-0.97,0.3,-0.19,7.21,-7.63,1.47
-0.96,0.3,-0.19,6.44,-7.49,1.19
-0.95,0.29,-0.2,4.83,-7,0.91
-0.94,0.3,-0.2,3.5,-6.3,0.56
-0.94,0.29,-0.2,2.1,-5.53,0.35
-0.94,0.28,-0.19,1.12,-5.18,0.35
-0.95,0.28,-0.2,0.98,-5.18,0.07
-0.96,0.27,-0.19,1.54,-5.74,0.14
-0.97,0.26,-0.19,2.38,-6.16,0.07
-0.97,0.26,-0.19,3.29,-6.58,0.28
-0.96,0.26,-0.19,3.99,-6.79,0.77
-0.96,0.25,-0.19,4.69,-6.86,0.91
-0.96,0.25,-0.19,5.53,-6.79,0.98
-0.96,0.25,-0.19,6.3,-6.72,1.12
-0.96,0.25,-0.19,7.07,-6.72,1.47
-0.96,0.26,-0.19,7.14,-6.79,1.75
-0.95,0.26,-0.2,6.51,-6.23,1.89
-0.96,0.26,-0.2,6.44,-6.09,2.03
-0.96,0.26,-0.19,6.3,-5.6,1.96
-0.96,0.26,-0.19,6.44,-5.6,1.61
-0.97,0.26,-0.18,6.58,-5.53,1.12
-0.97,0.26,-0.18,6.44,-5.53,0.7
-0.97,0.26,-0.19,6.51,-5.39,0.21
-0.97,0.26,-0.19,6.65,-5.18,0.35
-0.96,0.25,-0.19,6.79,-5.11,0.35
-0.96,0.25,-0.18,6.72,-5.32,0.28
-0.96,0.26,-0.18,6.16,-5.32,0.21
-0.96,0.26,-0.18,5.81,-5.46,0.14
-0.96,0.27,-0.18,5.6,-5.74,0.28
-0.97,0.27,-0.19,4.97,-5.67,0.63
-0.96,0.27,-0.19,4.83,-5.88,0.84
-0.96,0.28,-0.19,4.41,-5.81,1.05
-0.96,0.28,-0.19,3.43,-5.67,1.05
-0.96,0.28,-0.19,2.24,-5.39,0.98
-0.96,0.27,-0.18,1.33,-5.32,1.05
-0.96,0.28,-0.19,-0.28,-4.55,0.84
-0.95,0.28,-0.19,-1.19,-4.41,0.84
-0.95,0.28,-0.18,-2.03,-4.55,0.77
-0.94,0.28,-0.17,-3.43,-4.41,0.84
-0.95,0.28,-0.18,-4.34,-3.92,0.84
-0.95,0.29,-0.17,-5.18,-4.13,0.91
-0.97,0.29,-0.17,-5.46,-5.18,1.26
-0.97,0.3,-0.17,-7.14,-4.34,1.33
-0.97,0.3,-0.16,-7.42,-5.39,1.96
-0.97,0.31,-0.16,-8.89,-5.88,2.45
-0.98,0.31,-0.16,-9.1,-6.93,3.64
-0.95,0.32,-0.14,-11.34,-7.7,4.06
-0.96,0.33,-0.14,-12.74,-8.61,6.16
-0.96,0.34,-0.14,-14.63,-10.5,8.26
-0.99,0.34,-0.14,-15.05,-12.32,10.78
-0.99,0.35,-0.14,-16.8,-13.09,13.37
-1,0.34,-0.14,-16.31,-15.47,16.45
-0.99,0.36,-0.11,-17.15,-18.55,19.74
-1,0.36,-0.11,-18.55,-21.7,23.59
-1.12,0.36,-0.09,-19.32,-26.88,25.41
-1.01,0.36,-0.08,-20.44,-30.52,27.86
-1.03,0.35,-0.08,-21.42,-33.46,30.24
-1.03,0.35,-0.07,-21.91,-37.59,32.27
-1.02,0.35,-0.06,-21.84,-42.84,34.65
-1,0.35,-0.05,-22.19,-47.39,37.59
-0.88,0.33,-0.05,-20.37,-53.69,40.39
-1,0.32,-0.04,-17.15,-59.43,42.56
-0.97,0.36,-0.04,-14.49,-63.49,44.94
-0.85,0.13,-0.16,2.52,-67.9,61.39
-0.87,0.34,-0.08,10.29,-66.15,70.28
-0.95,0.41,0.03,12.46,-64.82,71.4
-0.97,0.4,0.15,13.86,-57.68,72.38
-0.96,0.3,0.18,6.3,-50.89,78.33
-0.95,0.34,0.04,-15.05,-50.19,81.13
-0.95,0.31,-0.23,-37.03,-52.15,75.88
-0.92,0.32,-0.33,-35.91,-47.32,66.78
-0.93,0.47,-0.29,-23.66,-34.79,53.69
-0.89,0.54,-0.22,-0.35,-22.96,49.56
-0.86,0.61,-0.15,8.75,-22.89,48.72
-0.91,0.6,-0.01,12.53,-18.97,49.63
-0.92,0.52,0.05,12.74,-15.96,49.56
-0.93,0.47,0.06,8.47,-13.3,48.3
-0.91,0.43,0.08,2.24,-9.59,45.43
-0.91,0.42,0.05,-4.55,-5.18,39.62
-0.89,0.42,0.01,-7.56,-1.12,32.76
-0.86,0.43,-0.02,-8.75,2.1,25.2
-0.83,0.45,-0.03,-8.19,5.88,21.21
-0.82,0.47,-0.04,-7.35,10.22,17.36
-0.8,0.48,-0.04,-6.02,11.9,14.35
-0.79,0.49,-0.03,-4.9,13.79,11.27
-0.79,0.49,-0.02,-5.6,15.05,8.47
-0.79,0.48,-0.01,-7.07,16.03,5.6
-0.78,0.47,0,-8.47,16.1,2.24
-0.78,0.46,0.01,-10.08,16.24,-1.68
-0.79,0.45,0.02,-11.69,16.73,-5.81
-0.79,0.43,0.03,-14.49,17.22,-11.48
-0.8,0.42,0.05,-19.53,17.85,-15.54
-0.81,0.42,0.08,-22.96,18.2,-18.9
-0.82,0.44,0.21,-24.01,20.09,-19.74
-0.84,0.5,0.17,-22.05,23.73,-22.4
-0.86,0.49,0.12,-19.39,24.85,-23.8
-0.91,0.51,0.14,-17.36,26.39,-23.17
-0.95,0.58,0.13,-15.89,23.8,-18.69
-0.98,0.65,0.09,-14.98,15.68,-10.36
-0.99,0.75,0.08,-11.06,5.25,4.69
-0.92,0.83,0.02,-1.19,-0.35,16.94
-0.82,0.84,0.01,13.3,-1.19,28.49
-0.74,0.85,-0.05,27.65,5.11,29.33
-0.72,0.69,0.04,35.21,15.54,27.51
-0.8,0.61,0.11,34.86,21.84,24.78
-0.8,0.51,0.12,25.27,22.89,14.56
-0.81,0.38,0.1,10.22,21.77,4.9
-0.77,0.36,-0.1,-2.45,14.56,-17.78
-0.87,0.32,0.03,-9.24,21.35,-29.61
-0.98,0.36,-0.05,-16.31,28.21,-43.89
-1.06,0.36,-0.12,-18.9,35.63,-53.06
-1.08,0.38,-0.18,-21.77,38.29,-56.91
-1.06,0.42,-0.25,-20.02,31.43,-50.96
-1.04,0.46,-0.21,-13.58,19.46,-45.5
-0.9,0.59,-0.07,-5.25,17.64,-34.37
-0.87,0.61,-0.04,-5.46,16.66,-27.93
-0.87,0.57,-0.03,-3.36,12.67,-20.79
-0.9,0.52,-0.01,-4.55,15.19,-17.92
-0.9,0.4,-0.05,-4.34,19.25,-17.01
-0.75,0.35,-0.1,-2.52,20.93,-19.11
-0.85,0.29,-0.21,-1.4,14.56,-19.6
-0.86,0.32,-0.17,1.82,12.74,-22.47
-0.89,0.32,-0.13,-2.52,16.45,-27.02
-0.92,0.36,-0.15,-8.68,22.33,-34.3
-0.94,0.4,-0.19,-13.37,27.93,-38.92
-0.95,0.42,-0.24,-17.22,33.95,-40.18
-0.93,0.41,-0.25,-13.72,36.82,-37.03
-0.89,0.37,-0.3,-1.4,35.84,-29.47
-0.86,0.4,-0.26,8.12,33.32,-20.86
-0.86,0.44,-0.2,6.09,32.62,-0.49
-0.88,0.41,-0.17,0.07,32.41,-16.38
-0.92,0.37,-0.17,-4.55,31.85,-16.87
-0.95,0.35,-0.17,-7.21,30.03,-18.27
-0.95,0.34,-0.18,-9.17,28.77,-20.44
-0.95,0.34,-0.2,-6.58,28.14,-23.59
-0.94,0.34,-0.21,-1.68,27.3,-26.6
-0.93,0.36,-0.23,1.82,26.95,-29.68
-0.89,0.36,-0.26,6.65,25.76,-29.12
-0.89,0.37,-0.27,10.01,24.57,-27.72
-0.88,0.38,-0.27,14,22.96,-25.62
-0.89,0.4,-0.27,15.12,21.21,-23.03
-0.91,0.42,-0.26,16.94,19.74,-20.37
-0.86,0.47,-0.24,18.48,14.98,-16.87
-0.96,0.34,-0.26,24.08,16.66,-17.99
-0.91,0.4,-0.23,26.74,13.09,-14.7
-0.91,0.39,-0.22,24.71,10.85,-12.74
-0.94,0.4,-0.24,23.66,8.68,-11.13
-0.88,0.4,-0.23,21.91,4.13,-4.41
-0.93,0.35,-0.23,21.49,7,-8.4
-0.89,0.37,-0.26,22.89,4.06,-5.11
-0.88,0.37,-0.26,21.07,3.01,-3.43
-0.89,0.37,-0.29,19.39,2.94,-0.28
-0.89,0.37,-0.3,18.9,3.29,1.47
-0.89,0.36,-0.31,18.34,3.08,2.24
-0.88,0.35,-0.3,17.5,3.71,1.96
-0.88,0.34,-0.29,16.31,3.85,0.91
-0.87,0.35,-0.29,14.84,5.74,-1.68
-0.9,0.33,-0.3,13.58,6.02,-4.83
-0.91,0.34,-0.29,13.02,7.42,-6.09
-0.91,0.34,-0.3,12.46,8.47,-7.91
-0.9,0.33,-0.3,11.9,8.47,-9.38
-0.9,0.32,-0.29,11.34,10.01,-10.85
-0.91,0.31,-0.28,10.43,9.45,-12.18
-0.87,0.4,-0.26,6.65,9.73,-11.9
-0.92,0.26,-0.27,7.77,11.83,-11.62
-0.89,0.33,-0.26,8.54,9.66,-11.41
-0.89,0.3,-0.24,7.35,10.78,-11.34
-0.88,0.31,-0.25,5.46,12.11,-12.11
-0.9,0.28,-0.26,5.25,11.06,-11.76
-0.92,0.3,-0.25,6.3,9.8,-13.58
-0.95,0.29,-0.25,8.12,8.26,-14.14
-0.98,0.3,-0.28,10.78,6.02,-16.03
-0.97,0.29,-0.29,13.44,3.85,-17.85
-0.95,0.3,-0.28,16.1,2.45,-18.27
-0.94,0.35,-0.27,16.17,0,-22.33
-0.89,0.34,-0.28,15.26,3.43,-22.96
-0.89,0.37,-0.28,15.12,3.5,-21.98
-0.8,0.42,-0.27,12.11,0.84,-11.27
-0.92,0.34,-0.28,11.97,3.64,-13.86
-0.9,0.36,-0.27,11.69,2.87,-10.36
-0.91,0.35,-0.28,11.06,1.82,-8.26
-0.93,0.32,-0.26,11.83,0,-7.28
-0.96,0.3,-0.26,13.3,-1.47,-8.4
-0.96,0.32,-0.26,15.12,-2.59,-12.6
-0.99,0.29,-0.26,16.24,-4.34,-13.86
-0.98,0.35,-0.27,18.83,-6.79,-21.21
-0.97,0.33,-0.27,16.66,-6.3,-24.01
-0.94,0.34,-0.28,16.17,-7.07,-27.79
-0.89,0.38,-0.28,19.25,-9.87,-33.95
-0.95,0.34,-0.26,16.38,-6.09,-26.95
-0.97,0.38,-0.26,18.76,-5.88,-29.19
-0.93,0.35,-0.27,19.04,-10.29,-33.25
-0.9,0.34,-0.23,18.97,-15.05,-30.31
-0.93,0.3,-0.21,16.1,-13.93,-20.72
-0.91,0.41,-0.23,12.67,-15.33,-18.9
-0.93,0.41,-0.24,7.91,-16.17,-12.74
-1,0.45,-0.29,2.24,-16.8,-6.58
-1.05,0.46,-0.33,-2.87,-18.2,-0.63
-1.08,0.45,-0.37,-6.93,-15.82,6.51
-1.09,0.43,-0.37,-8.68,-15.47,13.65
-1.08,0.35,-0.33,-8.82,-17.36,18.06
-1.07,0.27,-0.27,-7.98,-22.89,22.05
-1.07,0.23,-0.21,-6.79,-29.05,23.59
-1.05,0.21,-0.18,-10.36,-35.42,23.59
-1.04,0.22,-0.13,-15.26,-40.53,21.98
-1.03,0.25,-0.11,-18.2,-44.52,20.93
-1.03,0.28,-0.11,-19.67,-48.23,20.86
-1.03,0.31,-0.12,-19.88,-52.99,20.58
-1.01,0.33,-0.14,-19.81,-56.56,21.35
-1,0.36,-0.14,-19.95,-60.27,24.5
-0.73,0.09,-0.2,12.04,-84,68.04
-0.87,0.49,-0.11,-2.17,-83.16,75.11
-0.91,0.39,-0.03,-15.47,-87.99,80.43
-0.96,0.39,-0.02,-22.47,-88.13,80.92
-0.92,0.33,0.03,-32.48,-87.78,84.49
-0.96,0.53,0.16,-53.13,-73.99,73.43
-0.91,0.18,-0.1,-54.6,-78.26,89.32
-0.93,0.23,-0.21,-48.44,-93.87,92.68
-0.94,0.33,-0.09,-44.94,-88.97,89.67
-0.96,0.31,-0.13,-37.94,-82.53,86.31
-0.95,0.3,-0.2,-32.27,-75.39,90.3
-1,0.31,-0.26,-20.23,-70.35,92.05
-1.03,0.3,-0.31,-4.62,-62.86,91.35
-1.05,0.39,-0.21,-0.7,-42.63,82.74
-1.05,0.41,-0.17,7.63,-30.87,76.02
-1.01,0.41,-0.1,14.91,-20.79,79.03
-0.98,0.54,-0.08,12.88,-11.69,72.59
-0.93,0.59,-0.06,14.77,-10.71,70.14
-0.91,0.48,-0.06,22.75,-8.96,81.34
-0.89,0.54,-0.04,20.09,-7.28,84.07
-0.91,0.55,0,18.48,-7.07,81.41
-0.96,0.4,0.02,17.22,-4.27,85.4
-0.9,0.51,-0.04,8.4,-4.55,77.35
-0.92,0.45,0,0.56,0.07,72.45
-0.97,0.35,-0.06,-4.48,0.49,71.05
-0.92,0.48,-0.04,-9.31,4.06,62.09
-0.95,0.41,-0.01,-11.97,4.9,64.26
-0.92,0.38,-0.08,-11.83,6.23,70.91
-0.88,0.36,-0.09,-3.99,1.68,73.01
-0.81,0.32,0.01,5.18,0.56,69.23
-0.79,0.38,-0.02,8.96,0.56,60.69
-0.79,0.48,0.04,7.84,0.98,54.18
-0.83,0.47,-0.01,7.63,-1.26,47.88
-0.77,0.43,0.01,11.13,-4.69,48.09
-0.86,0.55,0.02,13.93,-7.07,39.62
-0.77,0.53,-0.01,13.86,-15.68,34.72
-0.87,0.54,0.04,14.7,-15.19,21.42
-0.83,0.56,0.08,12.11,-15.12,11.69
-0.81,0.57,0.02,9.24,-13.58,-0.56
-0.79,0.58,0,2.87,-11.48,-9.24
-0.75,0.6,0,-3.64,-9.73,-15.12
-0.74,0.59,-0.01,-8.26,-8.47,-20.16
-0.73,0.57,-0.02,-10.29,-8.4,-25.83
-0.73,0.53,-0.03,-11.69,-9.52,-28.63
-0.72,0.53,-0.03,-11.69,-9.38,-31.22
-0.71,0.53,-0.03,-10.78,-8.75,-32.97
-0.69,0.54,-0.02,-9.94,-7.28,-32.55
-0.68,0.55,0,-8.33,-5.67,-31.71
-0.67,0.58,0.01,-6.93,-4.27,-28.35
-0.67,0.62,0.01,-4.55,-5.11,-24.08
-0.67,0.61,0.02,4.13,-1.05,-21.84
-0.67,0.64,0.01,13.51,-1.05,-17.5
-0.66,0.65,0.04,19.32,-1.05,-13.51
-0.68,0.66,0.07,23.31,-3.92,-9.87
-0.68,0.7,0.09,25.83,-0.28,-7.91
-0.71,0.72,0.1,27.44,-0.84,-3.85
-0.71,0.74,0.25,27.86,-0.42,-1.4
-0.63,1.31,0.23,4.41,25.48,1.82
-0.73,0.72,0.09,25.27,0.49,2.8
-0.73,0.79,0.11,27.65,0.28,2.8
-0.75,0.78,0.13,26.32,2.59,3.85
-0.77,0.77,0.15,24.57,2.66,7.42
-0.82,0.78,0.15,20.93,3.57,7.56
-0.84,0.79,0.18,15.68,2.66,10.08
-0.83,0.82,0.18,6.79,-1.05,18.2
-0.83,0.77,0.16,4.2,2.59,8.26
-0.86,0.75,0.09,2.94,4.76,4.69
-0.92,0.65,-0.01,12.6,11.34,-8.68
-0.99,0.65,-0.1,27.16,19.95,-21.49
-1.1,0.63,-0.1,32.48,25.13,-27.37
-1.16,0.59,-0.11,34.37,24.71,-29.68
-1.23,0.6,-0.14,31.78,20.09,-28.42
-1.21,0.62,-0.1,19.67,21.91,-20.93
-1.26,0.59,-0.05,21.98,19.11,-19.46
-1.16,0.59,-0.02,21.77,15.05,-19.6
-1.02,0.56,0.01,26.95,1.4,-22.05
-0.94,0.51,-0.02,27.79,-8.12,-23.03
-1.05,-0.43,-0.69,75.32,-55.72,10.15
-0.65,0.49,-0.2,41.02,-38.92,-18.48
-0.57,0.42,-0.27,35.28,-33.18,-40.74
-0.56,0.31,-0.29,33.04,-33.18,-51.52
-0.6,0.29,-0.2,28.77,-27.16,-63.42
-0.6,0.05,-0.08,52.64,-4.34,-52.5
-0.73,0.25,-0.14,42.84,17.22,-46.76
-0.9,0.41,-0.24,41.79,18.97,-54.95
-0.92,0.58,-0.3,44.24,28.35,-54.46
-0.91,0.66,-0.28,35.35,32.9,-52.5
-0.82,0.66,-0.29,30.94,31.57,-42.98
-0.77,0.67,-0.21,18.2,35.21,-35.49
-0.74,0.52,-0.23,7.84,35.28,-23.73
-0.78,0.55,-0.26,5.18,33.18,-16.52
-0.87,0.44,-0.26,15.12,26.53,-11.48
-0.92,0.37,-0.24,25.76,24.22,-9.31
-0.94,0.31,-0.21,33.04,20.58,-8.4
-0.96,0.26,-0.18,38.01,16.59,-8.61
-0.96,0.26,-0.18,42.14,13.44,-10.22
-0.95,0.26,-0.2,46.62,10.36,-9.8
-0.94,0.32,-0.24,56.7,2.24,-11.06
-0.93,0.37,-0.22,66.5,-4.83,-9.87
-0.88,0.43,-0.23,69.58,-7.63,-8.96
-0.87,0.42,-0.25,71.96,-9.38,-7.07
-0.87,0.42,-0.3,77.42,-12.67,-4.62
-0.85,0.37,-0.3,74.97,-14,2.45
-0.84,0.41,-0.27,75.53,-15.68,4.48
-0.82,0.42,-0.26,70.56,-12.88,2.94
-0.83,0.41,-0.28,67.2,-10.85,4.06
-0.85,0.41,-0.29,65.94,-9.17,4.06
-0.85,0.43,-0.28,65.31,-6.79,2.1
-0.85,0.43,-0.28,66.99,-7,1.05
-0.86,0.43,-0.28,68.88,-7.21,0.77
-0.87,0.43,-0.28,71.82,-7.56,-0.42
-0.9,0.43,-0.27,75.88,-7.35,-4.34
-0.91,0.36,-0.32,75.46,-6.09,-4.13
-0.88,0.42,-0.25,74.06,-7.42,-4.34
-0.88,0.43,-0.3,77.98,-10.43,-6.51
-0.87,0.41,-0.29,82.11,-8.89,-8.75
-0.85,0.43,-0.28,76.44,-5.25,-9.59
-0.85,0.44,-0.26,73.99,-5.67,-10.92
-0.83,0.49,-0.21,69.72,-8.26,-5.74
-0.83,0.52,-0.24,61.32,-9.8,-4.9
-0.85,0.45,-0.27,62.37,-3.57,-8.12
-0.82,0.51,-0.26,57.4,-6.65,-7.84
-0.79,0.53,-0.22,46.9,-7.84,-5.95
-0.82,0.46,-0.29,46.55,-4.27,-6.58
-0.85,0.42,-0.28,45.57,-0.28,-11.55
-0.84,0.46,-0.26,40.32,-0.84,-13.86
-0.86,0.45,-0.27,35.49,0.56,-16.45
-0.9,0.38,-0.34,32.69,5.67,-21.42
-0.92,0.46,-0.3,33.04,5.81,-29.82
-0.84,0.43,-0.27,26.67,5.46,-26.46
-0.91,0.39,-0.37,32.97,5.04,-31.5
-0.9,0.45,-0.31,31.71,5.81,-35.35
-0.9,0.46,-0.3,20.93,6.51,-37.94
-0.94,0.4,-0.37,31.85,6.72,-36.96
-0.97,0.43,-0.3,24.43,6.16,-37.66
-0.96,0.4,-0.33,27.37,3.92,-34.65
-0.99,0.37,-0.37,29.47,3.71,-30.66
-0.99,0.38,-0.35,32.13,0.35,-28.21
-0.96,0.38,-0.34,32.48,-3.78,-24.29
-0.95,0.37,-0.37,34.02,-2.45,-22.68
-0.92,0.44,-0.31,30.52,-6.58,-13.86
-0.93,0.38,-0.32,36.61,-3.01,-13.3
-0.9,0.41,-0.27,39.97,-6.79,-6.23
-0.9,0.39,-0.26,43.96,-9.45,-1.61
-0.92,0.4,-0.26,48.72,-14.77,1.19
-0.92,0.41,-0.25,52.29,-19.88,2.66
-0.92,0.45,-0.25,54.18,-26.74,3.64
-0.9,0.5,-0.26,53.55,-33.53,4.62
-0.9,0.55,-0.26,51.24,-40.46,7.84
-0.87,0.57,-0.27,48.16,-44.66,12.25
-0.87,0.59,-0.27,42,-47.67,17.99
-0.89,0.61,-0.27,31.57,-50.4,24.57
-0.88,0.6,-0.22,21.77,-50.33,33.11
-0.91,0.62,-0.19,10.01,-52.57,41.09
-0.97,0.64,-0.16,-2.94,-56.42,51.38
-1.01,0.62,-0.16,-18.2,-58.45,61.95
-1.04,0.62,-0.08,-32.27,-64.68,71.19
-1.03,0.56,-0.08,-47.11,-72.17,79.94
-1.03,0.51,-0.01,-58.1,-75.6,85.96
-1.02,0.42,-0.02,-62.86,-86.66,93.38
-1.01,0.32,-0.04,-58.87,-92.26,100.31
-1.03,0.28,0.01,-62.44,-105.35,103.46
-1,0.25,0.02,-56.63,-106.75,104.16
-1.03,0.28,0.03,-54.39,-99.47,102.27
-1.1,0.26,-0.05,-56.49,-92.68,103.32
-1.17,0.27,-0.24,-65.03,-84.84,100.03
-1.29,0.16,-0.46,-61.04,-85.61,98.49
-1.28,0.17,-0.45,-55.86,-86.94,92.4
-1.19,0.26,-0.41,-53.13,-90.65,88.55
-1.15,0.39,-0.36,-34.58,-88.97,89.88
-1.09,0.41,-0.32,-13.58,-94.71,92.19
-0.95,0.5,-0.07,1.96,-93.1,98.35
-0.89,0.51,0,15.47,-92.4,106.61
-0.89,0.54,0.03,17.43,-85.19,112.21
-0.93,0.53,0.03,10.57,-73.43,110.74
-0.98,0.39,0.03,17.01,-68.74,107.17
-0.97,0.35,0.04,14.98,-58.87,104.72
-0.91,0.34,0.03,14.84,-40.11,102.55
-0.83,0.3,0.02,22.68,-27.51,99.61
-0.87,0.42,0.03,28.21,-20.16,88.06
-0.9,0.46,0.01,32.48,-17.99,77.49
-0.84,0.46,-0.01,38.43,-21.21,74.2
-0.73,0.41,0.05,45.43,1.54,85.61
-0.78,0.4,0.01,42.77,0.42,80.64
-0.72,0.43,0.04,39.13,4.48,71.75
-0.74,0.45,0,33.74,6.65,61.18
-0.71,0.46,-0.03,28.7,8.12,52.15
-0.73,0.47,-0.04,23.66,7.63,42.28
-0.67,0.46,-0.08,22.12,8.4,28.28
-0.69,0.44,-0.09,18.2,3.99,17.01
-0.65,0.45,-0.08,11.69,2.66,5.95
-0.62,0.46,-0.08,9.1,0.63,-6.02
-0.58,0.48,-0.06,2.03,-0.56,-15.89
-0.56,0.49,-0.03,-3.57,-0.77,-24.57
-0.55,0.51,-0.02,-8.26,0.35,-35.77
-0.55,0.53,-0.03,-12.46,2.1,-43.82
-0.55,0.56,-0.03,-15.4,3.85,-49.98
-0.55,0.6,-0.03,-14.07,5.74,-52.01
-0.58,0.65,-0.01,-12.74,8.54,-52.29
-0.57,0.69,0.01,-11.69,11.69,-49.63
-0.65,0.73,0.05,-8.61,12.67,-43.4
-0.59,0.82,0.1,-7.7,15.82,-35.56
-0.64,0.89,0.14,-4.2,17.01,-28.21
-0.66,0.91,0.16,6.3,20.93,-21.98
-0.7,0.97,0.12,17.99,25.27,-16.03
-0.7,1,0.1,31.5,28.49,-12.53
-0.71,0.94,0.1,41.72,30.94,-11.2
-0.76,0.9,0.13,45.85,31.01,-11.69
-0.84,0.8,0.15,42.84,27.09,-12.53
-0.9,0.73,0.2,33.11,19.11,-9.59
-0.92,0.73,0.25,17.92,10.29,-9.1
-0.93,0.73,0.24,4.06,2.52,-5.53
-0.95,0.7,0.2,-1.61,-3.36,-2.73
-1.01,0.62,0.13,2.73,-7.91,0.07
-1.16,0.56,0.04,24.29,-10.01,8.96
-1.15,0.53,-0.08,58.1,-8.26,5.81
-1.21,0.62,0.01,76.51,-7,-6.93
-1.37,0.4,-0.11,86.73,2.73,-9.31
-1.39,0.35,-0.15,74.2,5.18,-11.83
-1.37,0.4,-0.11,64.26,4.13,-23.45
-1.24,0.49,-0.12,58.87,-1.12,-33.95
-1.1,0.54,-0.19,68.18,-12.81,-37.24
-0.89,0.64,-0.18,61.74,-15.4,-47.6
-0.69,0.76,-0.21,60.34,-18.06,-58.59
-0.6,0.25,-0.75,84.91,-54.46,-40.11
-0.49,0.6,-0.38,72.1,-49.77,-51.31
-0.46,0.6,-0.31,51.03,-38.85,-61.25
-0.49,0.48,-0.27,36.68,-20.86,-60.2
-0.51,0.39,-0.17,28.35,2.8,-40.32
-0.75,0.6,-0.31,20.09,31.57,-37.66
-0.88,0.61,-0.4,24.08,41.02,-34.79
-0.91,0.62,-0.45,33.46,48.3,-29.68
-0.92,0.53,-0.43,51.03,48.23,-22.82
-0.89,0.42,-0.36,64.89,43.54,-13.86
-0.88,0.27,-0.26,71.05,33.11,-10.64
-0.9,0.21,-0.13,64.05,17.78,-7.7
-0.96,0.15,-0.15,62.72,10.36,-8.4
-1.03,0.14,-0.16,54.6,4.48,-11.06
-1.06,0.15,-0.23,53.62,1.68,-13.86
-1.01,0.19,-0.26,57.4,-3.01,-17.29
-0.99,0.28,-0.28,61.6,-8.96,-20.3
-0.93,0.3,-0.29,67.55,-12.95,-19.53
-0.89,0.34,-0.33,72.94,-17.36,-16.38
-0.87,0.37,-0.35,79.03,-20.44,-13.37
-0.87,0.36,-0.37,81.97,-24.08,-4.41
-0.82,0.36,-0.37,81.27,-24.85,5.04
-0.85,0.44,-0.33,79.8,-23.66,4.9
-0.88,0.51,-0.31,77.84,-23.38,-1.47
-0.89,0.39,-0.34,78.89,-23.17,-0.98
-0.9,0.38,-0.35,79.8,-24.22,-1.96
-0.9,0.45,-0.35,81.2,-25.2,-9.1
-0.9,0.37,-0.33,82.74,-24.08,-7.42
-0.9,0.41,-0.32,85.4,-24.43,-11.34
-0.9,0.41,-0.3,86.8,-24.22,-11.9
-0.88,0.4,-0.29,88.97,-22.61,-11.06
-0.85,0.36,-0.3,87.29,-22.75,-5.67
-0.86,0.37,-0.29,82.88,-23.45,0.84
-0.89,0.39,-0.25,75.67,-26.04,1.19
-0.88,0.35,-0.27,86.66,-31.43,3.22
-0.86,0.36,-0.28,88.55,-35.56,3.57
-0.84,0.36,-0.27,89.88,-38.29,3.5
-0.83,0.37,-0.29,89.46,-38.85,2.1
-0.81,0.4,-0.31,89.46,-38.22,-0.28
-0.76,0.44,-0.32,89.04,-35,-3.57
-0.76,0.52,-0.32,86.38,-30.38,-7.98
-0.77,0.56,-0.33,82.04,-26.95,-10.57
-0.77,0.55,-0.31,77.56,-21.21,-8.75
-0.8,0.57,-0.28,71.47,-18.13,-8.05
-0.83,0.54,-0.28,66.22,-15.05,-8.54
-0.83,0.52,-0.29,60.41,-14.35,-8.4
-0.86,0.5,-0.31,53.69,-15.54,-8.82
-0.9,0.45,-0.31,52.92,-14.98,-7.77
-0.94,0.44,-0.32,55.16,-14.07,-7.35
-0.95,0.44,-0.32,57.89,-16.17,-6.58
-0.96,0.42,-0.3,59.71,-17.85,-4.27
-0.96,0.44,-0.31,59.29,-19.81,-3.36
-1.12,0.23,-0.05,77.84,-24.08,-20.58
-0.84,0.3,-0.09,88.69,-37.52,-23.59
-0.69,0.31,-0.16,88.97,-41.37,-28.77
-0.58,0.28,-0.15,85.54,-35.35,-30.59
-0.5,0.36,-0.19,74.48,-15.26,-39.34
-0.45,0.38,-0.32,54.95,5.39,-50.47
-0.42,0.47,-0.26,30.87,26.11,-59.43
-0.52,0.48,-0.42,25.13,29.4,-59.29
-0.54,0.66,-0.43,24.22,40.95,-61.25
-0.69,0.74,-0.45,29.47,50.89,-61.67
-0.79,0.86,-0.35,36.54,57.19,-56.49
-0.91,0.9,-0.2,29.4,61.95,-50.19
-0.95,0.78,-0.11,22.89,57.68,-43.19
-0.92,0.65,-0.1,13.02,50.33,-34.51
-0.88,0.49,-0.14,4.13,40.39,-27.09
-0.86,0.3,-0.19,10.85,30.87,-20.65
-0.84,0.18,-0.22,28.98,24.78,-20.44
-0.86,0.12,-0.24,43.4,21.98,-27.09
-0.85,0.11,-0.23,48.93,23.8,-35.14
-0.9,0.13,-0.21,43.47,28,-41.65
-0.92,0.12,-0.22,50.96,26.95,-48.16
-0.89,0.25,-0.22,42.42,25.27,-49.42
-0.95,0.34,-0.24,45.92,22.96,-49.7
-0.93,0.45,-0.23,55.02,17.71,-44.94
-0.89,0.53,-0.22,56.63,19.53,-43.89
-0.84,0.56,-0.25,56.77,19.32,-43.4
-0.75,0.58,-0.22,48.58,18.2,-34.16
-0.76,0.54,-0.22,49.7,18.76,-33.88
-0.75,0.53,-0.2,44.1,17.99,-30.17
-0.75,0.58,-0.15,32.27,18.76,-25.69
-0.85,0.5,-0.22,39.83,21.98,-31.57
-0.82,0.51,-0.19,32.34,20.16,-28.77
-0.86,0.45,-0.25,29.96,25.41,-36.47
-0.84,0.43,-0.21,26.39,24.01,-41.37
-0.83,0.41,-0.21,24.57,23.87,-47.46
-0.83,0.37,-0.22,27.58,23.17,-52.15
-0.82,0.38,-0.19,23.66,19.25,-50.4
-0.84,0.38,-0.21,22.89,17.78,-52.92
-0.91,0.39,-0.26,33.25,14.56,-56.56
-0.92,0.42,-0.25,32.9,9.52,-56.14
-0.94,0.41,-0.27,34.58,4.9,-49.91
-0.96,0.45,-0.29,30.1,2.73,-43.68
-0.95,0.49,-0.28,36.82,1.96,-49.77
-0.93,0.47,-0.27,36.96,-0.63,-43.96
-0.92,0.47,-0.25,36.61,-2.59,-37.03
-0.89,0.5,-0.2,33.46,-6.09,-23.52
-1,0.43,-0.25,31.71,-5.46,-21.42
-0.97,0.49,-0.24,30.52,-9.24,-16.1
-0.95,0.5,-0.25,27.02,-13.79,-10.57
-0.93,0.55,-0.25,24.43,-16.94,-4.97
-0.92,0.59,-0.24,22.82,-21.14,0.14
-0.9,0.63,-0.22,20.72,-25.9,5.32
-0.9,0.66,-0.21,16.59,-32.41,11.62
-0.92,0.74,-0.22,10.22,-40.39,19.11
-0.98,0.79,-0.19,0.49,-48.72,26.95
-1.03,0.82,-0.17,-11.34,-55.3,37.03
-1.07,0.84,-0.13,-25.9,-63,48.72
-1.07,0.83,-0.08,-42.35,-70.28,61.81
-1.11,0.8,-0.04,-64.19,-81.83,78.26
-1.08,0.67,-0.04,-83.93,-99.26,89.46
-1.04,0.57,-0.04,-96.04,-118.72,97.44
-1.02,0.47,-0.08,-98.63,-127.12,104.09
-0.94,0.38,-0.07,-96.6,-122.92,111.09
-0.82,0.33,-0.1,-76.23,-94.22,119.7
-0.94,0.37,-0.04,-80.78,-90.79,141.26
-1.09,0.38,-0.05,-81.9,-77,127.68
-1.3,0.37,-0.24,-97.3,-65.66,129.85
-1.39,0.3,-0.46,-99.61,-59.01,120.61
-1.39,0.2,-0.4,-76.72,-60.06,113.12
-1.32,0.26,-0.34,-57.54,-63.91,104.3
-1.12,0.47,-0.27,-36.61,-68.53,106.05
-0.93,0.74,-0.19,-20.65,-64.05,115.99
-0.91,0.68,-0.18,-4.9,-63.84,118.51
-0.87,0.6,-0.07,-7.77,-57.54,120.82
-0.87,0.65,-0.09,-18.55,-42.7,117.46
-0.92,0.68,-0.12,-33.6,-31.15,108.78
-0.93,0.5,-0.15,-30.87,-30.87,106.05
-0.87,0.54,-0.05,-12.81,-20.37,98.49
-0.86,0.5,-0.04,-15.4,-13.37,87.71
-0.8,0.46,-0.05,-20.23,-6.16,80.43
-0.76,0.39,-0.08,-19.39,-2.66,79.1
-0.69,0.36,-0.06,-20.23,2.17,73.29
-0.68,0.32,-0.05,-20.3,5.39,66.22
-0.68,0.28,-0.04,-12.67,6.79,59.15
-0.65,0.33,-0.04,-9.24,9.87,49.63
-0.65,0.3,-0.04,-1.75,10.57,36.54
-0.62,0.48,-0.01,-2.66,11.9,25.48
-0.65,0.34,-0.01,-5.46,15.26,14
-0.66,0.3,0.02,-8.82,17.36,4.9
-0.64,0.3,0.04,-17.78,22.96,-3.71
-0.61,0.29,0.04,-23.94,29.12,-12.18
-0.59,0.27,0.04,-28.07,36.89,-20.37
-0.59,0.23,0.01,-31.71,42.49,-31.15
-0.57,0.22,0,-32.83,45.71,-40.04
-0.55,0.23,0.01,-31.92,48.02,-49
-0.56,0.26,0.02,-28.56,48.02,-57.89
-0.6,0.3,0.03,-20.51,44.66,-63.63
-0.65,0.46,0.14,-19.04,41.93,-71.05
-0.7,0.67,0.22,-25.48,39.41,-80.64
-0.83,0.88,0.25,-29.26,38.29,-73.92
-0.87,1.18,0.22,-29.89,23.94,-45.36
-0.85,1.43,0.25,-23.59,27.58,-27.23
-0.76,1.48,0.11,5.74,29.89,-6.65
-0.75,1.35,0.06,25.97,30.94,4.62
-0.72,1.22,0.13,29.54,27.02,12.81
-0.72,1.06,0.18,15.47,20.79,14.14
-0.77,0.94,0.23,-10.71,13.16,15.12
-0.78,0.85,0.3,-53.34,14.14,16.87
-0.78,0.8,0.3,-55.02,19.95,18.27
-0.77,0.7,0.21,-55.93,21.49,17.85
-0.74,0.61,0.2,-50.82,22.54,8.4
-0.85,0.53,0.18,-37.87,23.17,-3.85
-1.14,0.61,0.09,-15.05,28.84,-19.74
-1.38,0.68,-0.08,33.25,21.49,-28.42
-1.54,0.61,-0.22,39.83,10.78,-33.74
-1.62,0.41,-0.23,50.68,5.18,-27.02
-1.54,0.28,-0.15,56.14,3.85,-11.62
-1.41,0.4,-0.03,61.95,-3.36,-6.86
-1,0.41,0.03,73.64,-23.59,-4.55
-0.7,0.47,0.07,82.04,-29.05,-3.43
-0.59,0.42,-0.03,74.2,-27.16,-7.14
-0.55,0.34,-0.07,66.99,-24.99,-12.11
-0.5,0.33,-0.07,64.05,-13.3,-19.46
-0.51,0.38,-0.19,54.18,0.98,-31.92
-0.47,0.41,-0.11,41.44,38.15,-46.34
-0.75,0.51,-0.35,24.99,32.76,-59.43
-0.9,0.61,-0.38,4.83,28.49,-63.84
-0.91,0.73,-0.29,3.64,43.12,-65.38
-0.98,0.81,-0.39,6.58,49.35,-63.42
-0.92,0.83,-0.25,16.31,46.06,-56.07
-0.82,0.74,-0.18,13.86,37.8,-46.34
-0.73,0.62,-0.15,12.74,28.7,-34.3
-0.68,0.56,-0.1,6.93,23.38,-26.11
-0.68,0.48,-0.11,2.38,21.7,-19.6
-0.75,0.39,-0.17,5.11,22.75,-17.99
-0.82,0.28,-0.23,13.58,23.87,-21.28
-0.87,0.24,-0.26,21.14,27.23,-27.3
-0.9,0.26,-0.27,27.72,27.93,-33.25
-0.88,0.27,-0.23,30.17,30.59,-43.05
-0.93,0.31,-0.24,26.95,34.86,-51.66
-0.91,0.39,-0.22,31.57,32.97,-55.65
-0.9,0.48,-0.18,34.37,29.61,-54.18
-0.85,0.51,-0.19,34.3,25.06,-51.24
-0.84,0.54,-0.2,30.17,23.45,-48.16
-0.82,0.51,-0.23,31.36,24.01,-48.72
-0.7,0.57,-0.17,17.29,18.97,-41.44
-0.78,0.47,-0.25,25.83,25.83,-45.22
-0.77,0.49,-0.22,22.33,25.41,-41.86
-0.81,0.49,-0.22,17.71,31.15,-40.88
-0.79,0.5,-0.2,17.57,31.85,-40.74
-0.81,0.45,-0.17,14.21,32.48,-43.12
-0.84,0.43,-0.21,19.46,32.76,-47.6
-0.79,0.43,-0.16,14.91,22.47,-42.07
-0.85,0.39,-0.2,9.17,27.02,-48.37
-0.88,0.42,-0.24,13.44,23.66,-55.3
-0.85,0.43,-0.18,11.41,21.49,-57.19
-0.83,0.45,-0.2,9.38,20.72,-56.63
-0.77,0.51,-0.19,-3.43,35.63,-48.3
-0.89,0.43,-0.27,12.11,16.24,-52.08
-0.84,0.44,-0.24,14.63,9.52,-45.64
-0.85,0.49,-0.28,14.98,6.02,-44.24
-0.86,0.46,-0.31,15.47,4.9,-41.37
-0.89,0.5,-0.3,14.35,5.18,-42.28
-0.89,0.45,-0.25,14.56,5.39,-31.78
-1,0.38,-0.24,7.91,6.3,-27.09
-1.02,0.42,-0.23,16.87,2.52,-25.2
-1.02,0.4,-0.2,14.28,-2.45,-20.79
-1.01,0.41,-0.22,11.97,-5.39,-17.29
-0.96,0.44,-0.24,7.77,-7.21,-13.3
-0.92,0.49,-0.24,4.41,-9.17,-7.28
-0.89,0.56,-0.22,3.08,-12.81,-0.84
-0.87,0.61,-0.21,4.97,-17.5,5.04
-0.84,0.65,-0.18,4.97,-24.01,10.08
-0.83,0.69,-0.17,2.8,-31.71,13.93
-0.87,0.74,-0.19,-2.38,-40.25,16.03
-0.91,0.77,-0.18,-10.36,-45.43,18.41
-1,0.81,-0.19,-20.02,-50.4,20.09
-1.04,0.83,-0.18,-31.99,-54.67,24.5
-1.06,0.84,-0.18,-43.4,-59.85,29.05
-1.07,0.79,-0.23,-57.47,-67.41,36.26
-1.05,0.78,-0.22,-70.07,-75.25,44.87
-1.05,0.67,-0.18,-78.82,-86.59,54.88
-1.03,0.58,-0.09,-93.03,-98.21,66.85
-1.01,0.51,-0.07,-106.19,-105.7,78.54
-0.99,0.45,-0.12,-109.06,-105.7,84.14
-0.92,0.39,-0.18,-106.96,-91.07,88.48
-0.9,0.32,-0.2,-93.24,-72.52,91.49
-0.89,0.3,-0.15,-89.39,-39.48,95.9
-1.02,0.29,-0.19,-95.55,-41.09,93.31
-1.09,0.21,-0.26,-99.96,-34.09,92.75
-1.14,0.26,-0.3,-96.53,-28.77,89.74
-1.15,0.35,-0.27,-86.87,-25.9,87.08
-1.13,0.47,-0.28,-73.22,-25.27,84.42
-1.06,0.57,-0.27,-65.52,-27.44,88.06
-0.97,0.64,-0.23,-55.72,-28.56,95.48
-0.91,0.65,-0.15,-44.45,-29.12,100.8
-0.96,0.6,-0.15,-42.14,-22.96,98.21
-0.93,0.54,-0.13,-38.99,-22.12,97.23
-0.94,0.57,-0.07,-35.7,-21.21,92.89
-0.89,0.57,-0.06,-36.54,-12.81,84
-0.86,0.51,-0.09,-40.81,-2.17,74.13
-0.8,0.48,-0.07,-46.97,6.09,65.8
-0.78,0.45,-0.07,-49.35,14.14,58.31
-0.75,0.39,-0.07,-42.14,16.31,58.94
-0.71,0.42,-0.05,-39.9,17.08,56.21
-0.7,0.41,-0.03,-39.13,19.67,51.66
-0.7,0.39,-0.02,-35,22.19,46.69
-0.7,0.4,-0.02,-32.27,25.41,41.09
-0.72,0.41,-0.01,-28.56,27.37,32.97
-0.72,0.41,0,-25.13,31.15,26.04
-0.72,0.42,0,-24.01,33.67,19.74
-0.69,0.43,0,-28.21,38.29,13.3
-0.7,0.43,-0.02,-32.06,41.3,7.63
-0.67,0.42,-0.02,-38.08,45.71,1.12
-0.67,0.41,-0.02,-44.45,47.74,-6.58
-0.66,0.4,-0.01,-51.03,49.14,-13.23
-0.65,0.4,0,-55.37,49.77,-20.37
-0.65,0.41,0.02,-56.77,51.03,-27.3
-0.67,0.43,0.05,-56,52.29,-34.37
-0.7,0.48,0.1,-55.86,53.62,-40.88
-0.74,0.61,0.13,-57.05,55.16,-50.05
-0.76,0.71,0.15,-57.19,55.93,-57.68
-0.84,0.75,0.12,-54.32,55.79,-59.5
-0.84,0.84,0.1,-52.43,55.09,-55.02
-0.83,0.91,0.11,-57.33,49.77,-46.48
-0.82,0.91,0.19,-59.01,44.94,-39.69
-0.81,0.83,0.22,-58.94,43.82,-33.67
-0.78,0.79,0.21,-53.9,44.59,-29.12
-0.81,0.73,0.19,-47.46,41.58,-22.4
-0.78,0.72,0.18,-43.61,37.66,-17.08
-0.74,0.7,0.16,-43.26,31.22,-9.1
-0.72,0.73,0.13,-43.68,27.58,-2.8
-0.71,0.71,0.09,-43.68,29.19,3.29
-0.73,0.65,0.02,-40.67,33.32,8.54
-0.72,0.61,-0.02,-35.56,37.17,14.7
-0.7,0.58,-0.03,-31.22,41.65,14.49
-0.72,0.52,-0.02,-25.9,43.26,15.05
-0.87,0.54,-0.03,-15.68,47.18,12.6
-1.05,0.57,-0.08,-6.86,50.61,6.51
-1.22,0.61,-0.02,-9.73,52.22,-5.39
-1.29,0.55,0.05,-22.82,50.82,-10.36
-1.35,0.58,0.12,-33.95,42.42,-12.88
-1.39,0.59,0.07,-38.29,28.28,-10.15
-1.38,0.67,-0.1,-28.77,10.36,-2.94
-1.17,0.68,-0.15,-12.11,6.23,2.45
-0.77,0.57,-0.13,-5.46,20.93,0.63
-0.62,0.43,-0.22,-6.58,28.77,-6.44
-0.58,0.38,-0.15,-14.56,29.75,-11.2
-0.57,0.4,-0.15,-23.24,36.12,-18.41
-0.59,0.41,-0.18,-31.71,47.39,-30.17
-0.7,0.4,-0.24,-39.2,54.67,-39.69
-0.77,0.39,-0.24,-47.95,58.1,-47.39
-0.86,0.38,-0.25,-38.92,56.14,-48.58
-0.9,0.5,-0.24,-35.84,57.54,-50.4
-0.96,0.63,-0.22,-35.63,56.63,-49.56
-0.92,0.73,-0.17,-44.45,54.39,-46.13
-0.85,0.75,-0.16,-52.99,53.34,-40.53
-0.78,0.71,-0.18,-57.68,49.98,-33.46
-0.74,0.51,-0.2,-59.71,48.72,-23.66
-0.78,0.55,-0.2,-55.58,49.84,-17.78
-0.85,0.49,-0.21,-49.77,50.61,-14.7
-0.89,0.46,-0.19,-44.87,50.33,-14.49
-0.93,0.44,-0.18,-41.65,48.93,-16.52
-0.93,0.41,-0.18,-39.34,45.5,-19.39
-0.9,0.43,-0.17,-39.06,41.79,-23.73
-0.88,0.39,-0.2,-30.8,39.76,-26.04
-0.85,0.41,-0.2,-25.27,38.43,-29.4
-0.85,0.41,-0.2,-23.31,37.52,-31.36
-0.85,0.43,-0.2,-21.7,37.24,-32.41
-0.86,0.46,-0.19,-23.24,38.36,-33.6
-0.86,0.61,-0.19,-25.27,40.25,-34.65
-0.86,0.54,-0.17,-29.33,40.18,-34.02
-0.88,0.52,-0.18,-32.55,40.53,-34.58
-0.89,0.5,-0.17,-31.64,40.32,-34.58
-0.89,0.5,-0.19,-30.31,37.17,-34.3
-0.89,0.5,-0.25,-25.13,35.35,-33.88
-0.86,0.53,-0.25,-19.74,34.44,-34.65
-0.8,0.57,-0.23,-22.26,35.28,-34.37
-0.78,0.52,-0.23,-25.41,40.11,-34.23
-0.78,0.53,-0.19,-33.25,43.96,-33.04
-0.81,0.5,-0.19,-35.07,44.8,-32.83
-0.83,0.49,-0.18,-37.31,44.73,-32.13
-0.86,0.48,-0.17,-39.34,43.75,-31.71
-0.86,0.5,-0.13,-42.84,42.07,-29.26
-0.91,0.42,-0.2,-41.3,42.77,-31.43
-0.9,0.44,-0.2,-40.74,39.62,-30.17
-0.9,0.46,-0.19,-45.15,38.36,-29.12
-0.92,0.4,-0.22,-40.53,38.08,-29.61
-0.92,0.41,-0.2,-43.19,36.12,-27.16
-0.93,0.38,-0.2,-38.64,35.56,-25.97
-0.93,0.42,-0.18,-39.27,33.18,-24.57
-0.92,0.44,-0.16,-40.74,30.17,-23.24
-0.92,0.42,-0.18,-40.25,28.49,-23.94
-0.91,0.46,-0.2,-37.45,25.2,-22.4
-0.88,0.46,-0.19,-39.48,22.05,-20.3
-0.87,0.48,-0.21,-39.34,18.76,-18.76
-0.9,0.43,-0.23,-36.61,22.89,-19.11
-0.89,0.46,-0.22,-39.69,20.02,-16.66
-0.89,0.46,-0.22,-41.93,19.18,-14.35
-0.91,0.46,-0.22,-41.72,17.85,-12.81
-0.9,0.47,-0.2,-40.67,16.52,-11.34
-0.9,0.46,-0.18,-40.25,14.98,-8.96
-0.91,0.44,-0.18,-36.89,15.89,-8.26
-0.89,0.43,-0.19,-36.68,14.35,-7.28
-0.88,0.4,-0.22,-36.75,13.09,-7.91
-0.87,0.41,-0.24,-36.19,13.3,-10.22
-0.87,0.43,-0.23,-37.17,12.18,-11.9
-0.87,0.38,-0.27,-29.61,15.33,-14.84
-0.88,0.39,-0.24,-27.65,14.7,-16.24
-0.9,0.38,-0.23,-26.95,14.84,-18.06
-0.9,0.38,-0.2,-27.72,13.23,-21.07
-0.92,0.37,-0.19,-22.96,15.19,-19.39
-0.93,0.38,-0.19,-20.93,14.42,-18.48
-0.93,0.39,-0.21,-24.5,12.46,-17.71
-0.92,0.37,-0.13,-23.73,12.6,-17.78
-0.92,0.38,-0.24,-23.1,11.55,-18.2
-0.92,0.36,-0.25,-19.39,10.29,-17.78
-0.92,0.34,-0.24,-13.79,8.33,-16.94
-0.92,0.33,-0.24,-10.01,7.14,-16.59
-0.91,0.34,-0.24,-6.93,5.81,-17.85
-0.92,0.37,-0.28,-5.11,4.2,-18.55
-0.92,0.37,-0.26,-2.94,3.15,-21.84
-0.88,0.38,-0.26,0.56,3.99,-20.09
-0.87,0.42,-0.23,1.75,3.92,-19.95
-0.89,0.43,-0.22,2.03,3.5,-20.02
-0.9,0.43,-0.22,3.64,3.22,-18.48
-0.89,0.48,-0.22,1.4,-0.84,-17.85
-0.9,0.44,-0.24,5.25,2.38,-16.45
-0.87,0.47,-0.22,4.97,1.89,-15.68
-0.86,0.46,-0.23,4.34,1.47,-15.61
-0.85,0.47,-0.23,3.5,1.26,-15.05
-0.84,0.48,-0.23,1.82,1.82,-14.77
-0.85,0.47,-0.23,0.35,2.66,-14.77
-0.86,0.47,-0.23,-1.4,3.29,-15.19
-0.87,0.48,-0.23,-3.15,3.99,-15.96
-0.87,0.45,-0.22,-3.43,4.2,-16.45
-0.86,0.44,-0.21,-2.38,3.85,-17.29
-0.86,0.44,-0.21,1.96,1.54,-19.53
-0.86,0.42,-0.22,5.39,0.63,-21.63
-0.86,0.44,-0.23,10.22,-1.12,-23.31
-0.85,0.46,-0.22,12.18,-1.75,-24.36
-0.83,0.51,-0.21,9.87,-7.21,-21.98
-0.87,0.47,-0.2,12.74,-2.38,-25.13
-0.87,0.54,-0.2,11.27,-5.25,-23.73
-0.88,0.55,-0.2,8.75,-8.4,-20.51
-0.88,0.57,-0.18,1.26,-11.62,-15.26
-0.88,0.55,-0.16,-8.61,-14.21,-6.44
-0.89,0.57,-0.1,-19.53,-16.73,2.52
-0.9,0.52,-0.09,-27.3,-19.95,15.19
-0.9,0.48,-0.06,-34.65,-23.03,23.94
-0.93,0.46,-0.03,-43.12,-30.38,31.57
-0.96,0.4,-0.04,-48.37,-38.29,37.87
-1.01,0.33,-0.04,-46.34,-43.96,42.49
-1.11,0.39,0.01,-49.98,-57.19,49.84
-1.06,0.37,0.01,-48.72,-66.57,55.58
-1.1,0.41,0.03,-40.39,-77.07,63.42
-1.14,0.49,0.02,-34.86,-85.26,72.94
-1.17,0.53,-0.02,-28.07,-91.77,81.27
-1.17,0.56,-0.06,-19.39,-96.74,89.46
-1.01,0.57,-0.04,-10.22,-97.65,93.59
-1.06,0.55,0,-8.05,-95.69,98.98
-1.07,0.49,0.07,-0.07,-88.83,101.78
-1.06,0.5,0.29,-3.71,-78.4,105.91
-1.14,0.43,0.32,-2.94,-63.77,104.86
-1.18,0.29,0.15,-11.9,-59.08,103.39
-1.16,0.23,-0.07,-20.79,-59.15,95.27
-1.14,0.18,-0.26,-18.62,-60.9,87.22
-0.97,0.17,-0.37,-3.01,-60.62,83.79
-0.87,0.34,-0.23,13.72,-49.42,72.94
-0.78,0.46,-0.12,21.98,-37.17,62.86
-0.73,0.57,-0.04,25.2,-27.65,55.16
-0.78,0.69,0.02,21.91,-17.5,56.49
-0.78,0.72,0.06,16.17,-13.79,60.9
-0.83,0.77,0.08,6.16,-10.92,64.47
-0.86,0.7,0.06,0.77,-7.77,65.45
-0.9,0.61,0.01,-2.17,-10.22,62.72
-0.9,0.51,0.05,-1.19,-14.63,59.29
-0.86,0.49,0.06,-1.19,-10.29,51.66
-0.81,0.46,0.05,-0.21,-3.85,43.4
-0.82,0.45,0.01,-0.14,0.21,38.22
-0.79,0.48,0.01,-1.12,3.57,34.65
-0.76,0.51,0.02,-5.81,5.67,31.57
-0.72,0.5,0.05,-12.53,6.3,26.11
-0.69,0.5,0.11,-19.74,13.23,20.86
-0.67,0.48,0.15,-21.7,19.39,15.89
-0.67,0.49,0.17,-17.85,24.99,11.06
-0.68,0.48,0.18,-12.11,28.07,6.44
-0.67,0.51,0.15,-7.7,27.37,1.19
-0.68,0.51,0.12,-2.17,22.82,-0.7
-0.65,0.5,0.1,3.22,20.16,-5.18
-0.66,0.48,0.09,11.9,13.37,-8.54
-0.66,0.48,0.1,23.52,5.88,-10.92
-0.61,0.49,0.15,35.56,-7.98,-12.74
-0.64,0.51,0.13,49.63,-26.95,-15.89
-0.63,0.51,0.15,47.95,-35.56,-17.92
-0.61,0.55,0.14,43.96,-41.93,-19.95
-0.62,0.57,0.1,39.41,-41.44,-19.53
-0.59,0.63,0.06,9.87,-7.91,-19.32
-0.77,0.67,0.03,7.07,-24.5,-17.01
-0.76,0.71,0.12,-2.03,-17.71,-13.79
-0.75,0.78,0.15,2.38,-18.2,-9.73
-0.79,0.81,0.19,5.67,-16.73,-7.63
-0.86,0.81,0.22,10.78,-18.2,-4.62
-0.87,0.82,0.24,17.43,-22.26,-0.77
-0.84,0.85,0.24,20.93,-25.48,3.29
-0.81,0.86,0.23,21.28,-25.41,6.51
-0.73,0.84,0.21,19.18,-21.14,9.66
-0.67,0.79,0.19,15.47,-16.73,10.5
-0.66,0.71,0.16,13.72,-12.39,8.47
-0.66,0.63,0.15,15.75,-8.19,3.36
-0.67,0.55,0.12,20.23,-3.92,-6.3
-0.71,0.5,0.11,25.41,-3.71,-17.08
-0.76,0.5,0.11,27.79,-5.18,-28.98
-0.89,0.5,0.12,27.51,-8.19,-42.07
-1.18,0.43,0.07,44.45,4.13,-48.02
-1.46,0.6,0.04,45.71,1.4,-53.41
-1.59,0.6,0.08,47.88,0.56,-47.11
-1.54,0.65,0.11,46.62,-3.43,-36.96
-1.38,0.7,0.1,50.75,-8.75,-25.2
-1.19,0.71,0.06,60.9,-16.1,-11.9
-0.99,0.63,-0.03,74.2,-21.21,-5.6
-0.83,0.52,-0.14,90.86,-22.47,-4.13
-0.69,0.28,-0.12,110.04,-14.98,-1.12
-0.67,0.36,-0.21,103.95,-8.54,-15.19
-0.53,0.23,-0.07,93.59,-0.42,-20.58
-0.48,0.25,-0.06,79.17,27.37,-36.26
-0.52,0.35,-0.05,50.54,47.74,-52.08
-0.77,0.32,-0.24,21.14,32.34,-61.18
-0.86,0.31,-0.24,22.75,30.94,-66.29
-0.99,0.53,-0.26,17.29,40.95,-77.07
-1.01,0.74,-0.27,18.48,51.73,-78.75
-1.04,1,-0.3,24.71,57.47,-76.16
-0.94,0.87,-0.24,24.99,50.89,-63.21
-0.79,0.75,-0.15,22.75,49.07,-44.87
-0.78,0.54,-0.14,29.12,41.3,-31.85
-0.76,0.42,-0.14,36.19,25.55,-15.12
-0.79,0.35,-0.15,45.57,15.12,-3.78
-0.84,0.3,-0.17,54.11,9.59,0.7
-0.88,0.23,-0.17,65.8,4.69,-0.63
-0.89,0.27,-0.15,65.59,1.33,-4.69
-0.91,0.3,-0.15,59.5,0.63,-10.57
-0.92,0.34,-0.18,58.1,0.56,-15.12
-0.92,0.4,-0.21,57.47,-1.68,-17.78
-0.94,0.4,-0.22,64.96,-5.11,-17.64
-0.89,0.47,-0.24,71.12,-7.35,-16.17
-0.87,0.47,-0.23,78.05,-13.16,-6.65
-0.95,0.4,-0.25,83.93,-9.38,-13.51
-0.87,0.44,-0.24,86.59,-13.44,-14
-0.79,0.45,-0.21,85.33,-14.56,-14.42
-0.79,0.45,-0.24,87.92,-12.95,-17.85
-0.77,0.48,-0.22,84.14,-12.53,-17.43
-0.87,0.48,-0.25,91.35,-10.01,-26.04
-0.76,0.56,-0.18,77.7,-11.76,-17.08
-0.81,0.5,-0.24,84.14,-5.53,-22.33
-0.77,0.57,-0.18,74.9,-5.95,-23.03
-0.78,0.52,-0.15,69.44,-6.09,-17.78
-0.79,0.53,-0.17,57.68,-8.4,-18.62
-0.81,0.46,-0.21,63.07,-2.24,-19.81
-0.79,0.54,-0.18,58.38,-5.6,-18.76
-0.8,0.51,-0.19,55.93,-5.81,-18.97
-0.83,0.47,-0.19,52.85,-7.35,-19.53
-0.87,0.43,-0.22,46.55,-11.9,-23.1
-0.9,0.37,-0.24,50.61,-8.82,-29.68
-0.9,0.43,-0.22,49.49,-15.54,-34.44
-0.88,0.42,-0.25,47.88,-16.94,-38.29
-0.88,0.47,-0.26,45.43,-16.03,-41.37
-0.9,0.5,-0.23,40.6,-13.02,-42
-0.96,0.5,-0.27,33.95,-8.26,-37.17
-1.01,0.49,-0.21,31.99,-3.5,-36.61
-1.05,0.48,-0.17,29.05,-0.21,-31.5
-1.1,0.45,-0.15,22.89,-2.87,-26.53
-1.12,0.37,-0.17,24.57,-4.27,-25.97
-1.08,0.35,-0.16,27.16,-9.52,-24.57
-1.02,0.44,-0.15,25.9,-15.05,-23.38
-0.97,0.53,-0.13,25.9,-19.6,-18.55
-0.91,0.61,-0.12,24.57,-24.29,-11.41
-0.87,0.66,-0.14,19.18,-29.19,-0.28
-0.87,0.72,-0.17,10.5,-34.51,10.08
-0.9,0.75,-0.19,-2.17,-38.78,20.37
-1.02,0.82,-0.19,-13.09,-42.84,31.99
-1.17,0.88,-0.22,-21.49,-47.6,40.39
-1.27,0.89,-0.24,-33.18,-58.38,46.97
-1.25,0.81,-0.23,-48.86,-71.4,53.06
-1.21,0.72,-0.21,-63.77,-85.54,58.24
-1.13,0.57,-0.16,-70.84,-100.31,63.21
-1.06,0.45,-0.12,-72.45,-114.8,68.74
-0.96,0.38,-0.06,-76.02,-120.82,71.12
-0.89,0.31,-0.04,-76.09,-122.71,74.2
-0.79,0.26,-0.07,-63.77,-102.06,75.67
-0.74,0.39,-0.02,-64.75,-96.25,83.23
-0.75,0.44,-0.13,-70.28,-74.83,90.23
-0.82,0.5,-0.23,-87.99,-57.89,94.15
-0.91,0.44,-0.36,-101.29,-47.53,94.64
-0.99,0.43,-0.34,-94.71,-43.68,91.35
-0.99,0.47,-0.28,-83.93,-42.49,92.47
-0.99,0.55,-0.23,-64.47,-42.21,92.82
-0.99,0.57,-0.19,-48.44,-42.49,97.51
-0.97,0.54,-0.14,-34.79,-44.66,101.57
-0.99,0.48,-0.09,-23.45,-42.21,102.34
-0.96,0.45,-0.1,-10.01,-40.81,106.75
-0.98,0.47,-0.1,-3.5,-38.78,105.77
-1.02,0.46,-0.12,-2.45,-32.76,98.56
-0.92,0.48,-0.14,1.33,-25.27,97.65
-0.9,0.47,-0.17,4.06,-13.86,93.8
-0.83,0.52,-0.16,-5.18,-7.28,90.23
-0.8,0.56,-0.14,-19.6,0.42,85.75
-0.74,0.58,-0.12,-30.31,8.54,80.99
-0.75,0.56,-0.07,-33.32,11.34,77.98
-0.69,0.56,-0.06,-35.28,17.57,73.15
-0.71,0.52,-0.03,-35.42,20.23,66.85
-0.7,0.35,-0.06,-24.64,15.12,65.31
-0.67,0.46,-0.04,-26.46,16.87,58.8
-0.64,0.48,-0.02,-30.1,22.82,47.95
-0.67,0.44,-0.01,-34.79,28.28,39.69
-0.67,0.44,0.01,-41.79,34.09,31.22
-0.7,0.39,0,-47.95,36.54,25.34
-0.7,0.36,-0.01,-54.6,38.99,0.21
-0.68,0.3,-0.03,-60.55,42.28,5.53
-0.64,0.25,-0.03,-62.51,46.34,-3.71
-0.62,0.19,-0.03,-62.65,48.79,-12.81
-0.59,0.18,0,-62.79,51.24,-24.43
-0.59,0.2,0.01,-64.05,53.06,-36.4
-0.59,0.3,0.02,-67.62,54.6,-49.63
-0.59,0.42,0.04,-71.4,56.49,-63.7
-0.74,0.52,0.07,-72.31,61.53,-73.64
-0.69,0.62,0.08,-69.93,62.72,-75.6
-0.77,0.79,0.1,-63.77,60.41,-68.74
-0.86,0.94,0.17,-60.62,52.15,-52.78
-0.86,1.12,0.22,-53.2,41.23,-30.73
-0.86,1.1,0.25,-40.32,42.42,-22.26
-0.88,1.15,0.19,-32.9,39.83,-13.3
-0.9,1.08,0.2,-32.27,37.52,-5.95
-0.88,1.02,0.21,-42.84,33.32,0.63
-0.87,0.96,0.24,-59.36,32.13,3.78
-0.91,0.85,0.23,-68.04,27.72,7.49
-0.93,0.75,0.23,-73.15,26.18,8.96
-0.92,0.66,0.17,-69.51,25.69,10.64
-0.91,0.61,0.16,-60.97,32.06,5.39
-1,0.59,0.08,-38.36,37.38,1.19
-1.2,0.61,-0.01,-14.77,41.72,-4.69
-1.37,0.63,-0.05,-0.98,39.55,-10.43
-1.42,0.42,-0.07,4.2,34.65,-7.98
-1.16,0.34,-0.04,0.14,26.81,-10.99
-1.1,0.25,-0.07,1.05,18.55,-17.64
-0.97,0.22,-0.03,12.81,15.12,-18.76
-0.89,0.37,0.06,24.5,15.12,-24.85
-0.89,0.43,-0.03,37.1,3.85,-31.57
-0.73,0.49,-0.07,46.55,-1.26,-35.91
-0.55,0.52,-0.13,42.63,17.64,-42.07
-0.59,0.55,-0.21,20.72,32.9,-50.61
-0.56,0.56,-0.1,-14.91,44.31,-53.41
-0.55,0.57,-0.14,-34.65,55.37,-60.13
-0.61,0.6,-0.21,-52.5,63.63,-68.6
-0.7,0.57,-0.29,-64.96,65.94,-69.44
-0.79,0.62,-0.28,-56.98,66.36,-65.8
-0.9,0.76,-0.26,-47.88,65.52,-61.95
-0.93,0.79,-0.25,-33.88,60.06,-59.15
-0.88,0.78,-0.2,-36.54,53.76,-54.67
-0.82,0.64,-0.17,-36.61,48.86,-45.85
-0.76,0.55,-0.14,-35.14,44.73,-36.75
-0.74,0.48,-0.13,-33.6,43.05,-31.08
-0.81,0.35,-0.19,-24.71,41.09,-29.33
-0.81,0.32,-0.2,-10.36,39.9,-29.82
-0.84,0.29,-0.22,-4.41,39.13,-33.81
-0.86,0.26,-0.21,1.47,41.3,-42.21
-0.78,0.33,-0.15,-8.4,36.75,-44.45
-0.89,0.24,-0.25,8.68,47.6,-50.05
-0.87,0.33,-0.19,7.84,48.37,-51.31
-0.85,0.4,-0.15,-0.35,46.97,-49.42
-0.86,0.39,-0.16,-3.78,46.41,-47.95
-0.9,0.39,-0.16,-4.34,48.51,-52.22
-0.87,0.43,-0.14,-9.66,43.05,-52.71
-0.84,0.42,-0.17,-14,42.42,-55.02
-0.82,0.43,-0.22,-16.24,43.12,-53.34
-0.84,0.4,-0.26,-20.51,46.48,-54.11
-0.85,0.41,-0.28,-17.64,50.68,-57.54
-0.82,0.4,-0.27,-17.08,52.43,-56.56
-0.79,0.42,-0.25,-22.47,55.3,-56.21
-0.82,0.4,-0.26,-15.12,59.08,-61.88
-0.78,0.38,-0.2,-17.99,53.69,-54.39
-0.89,0.35,-0.23,-20.44,57.68,-59.43
-0.9,0.34,-0.23,-16.8,58.38,-64.4
-0.93,0.34,-0.21,-17.22,57.75,-66.22
-0.9,0.28,-0.19,-28.28,50.75,-59.36
-0.99,0.34,-0.24,-7.49,52.22,-69.79
-0.99,0.36,-0.24,-8.05,50.4,-74.27
-1,0.34,-0.25,-2.31,44.94,-74.13
-1.02,0.37,-0.25,4.97,35.91,-74.83
-0.95,0.46,-0.23,-8.89,24.85,-68.11
-0.99,0.45,-0.3,3.92,23.45,-71.47
-0.93,0.4,-0.31,5.81,0.56,-66.22
-0.92,0.39,-0.29,2.52,17.08,-55.86
-0.92,0.4,-0.3,1.82,14.63,-49.28
-0.93,0.37,-0.31,1.26,11.48,-39.69
-0.97,0.38,-0.31,2.73,8.54,-33.88
-0.97,0.39,-0.26,-5.18,1.05,-26.6
-1.07,0.37,-0.26,5.95,3.29,-25.2
-1.06,0.37,-0.23,6.72,-2.94,-20.23
-1.07,0.42,-0.22,6.93,-7.63,-15.47
-1.08,0.48,-0.24,7.63,-14.42,-12.11
-1.07,0.57,-0.28,3.57,-24.15,-9.38
-1.04,0.59,-0.29,0.63,-32.06,-0.63
-1.09,0.68,-0.28,-7,-39.13,7.63
-1.13,0.7,-0.26,-14.07,-44.45,18.83
-1.16,0.73,-0.24,-28.28,-52.78,30.52
-1.15,0.72,-0.18,-41.16,-66.08,43.33
-1.1,0.66,-0.09,-55.65,-76.86,56.49
-1.06,0.61,-0.08,-64.26,-90.65,67.34
-1.01,0.51,-0.07,-70.56,-103.53,74.97
-0.89,0.45,-0.05,-78.05,-116.9,82.6
-0.75,0.4,0,-91,-117.32,95.34
-0.68,0.41,0.04,-89.67,-107.94,102.55
-0.7,0.36,0.05,-88.2,-99.19,109.55
-0.75,0.4,0.11,-94.36,-81.48,121.66
-0.93,0.44,-0.03,-106.19,-66.22,128.38
-1.09,0.39,-0.26,-127.89,-55.51,136.15
-1.23,0.39,-0.36,-132.93,-44.45,128.24
-1.29,0.31,-0.43,-122.78,-45.36,124.6
-1.28,0.25,-0.48,-97.93,-48.02,114.1
-1.13,0.32,-0.4,-75.32,-52.92,108.01
-1,0.48,-0.3,-59.29,-52.99,110.04
-0.94,0.25,-0.54,-33.74,-63.35,134.89
-0.88,0.44,-0.2,8.68,-53.2,141.4
-0.95,0.58,-0.09,8.68,-34.3,133.42
-1.01,0.51,-0.07,9.1,-25.62,133.14
-0.99,0.56,-0.04,13.51,-18.06,132.37
-0.99,0.56,-0.05,18.27,-8.19,128.52
-0.95,0.54,-0.08,9.38,5.32,119.35
-0.93,0.45,-0.06,0.42,8.33,107.66
-0.87,0.43,-0.01,-8.12,11.55,103.39
-0.8,0.45,-0.02,-14.14,13.23,99.96
-0.74,0.44,-0.03,-16.8,17.92,94.5
-0.72,0.49,-0.03,-21.28,19.32,89.74
-0.67,0.5,-0.03,-19.32,18.41,84.14
-0.7,0.51,-0.04,-19.11,18.2,69.09
-0.74,0.41,-0.03,-18.55,19.88,62.44
-0.74,0.45,-0.01,-20.44,20.51,49.91
-0.74,0.32,0.01,-17.36,18.9,30.38
-0.74,-0.03,0.03,11.55,22.68,12.53
-0.69,0.29,0.04,-3.78,37.31,12.46
-0.7,0.5,0,-33.95,30.94,-1.26
-0.67,0.41,0.04,-40.04,30.73,-4.69
-0.67,0.43,0.01,-45.92,27.72,-10.64
-0.64,0.28,0.08,-41.51,28.42,-19.67
-0.63,0.26,0.07,-37.66,25.83,-29.61
-0.64,0.28,0.08,-34.23,22.26,-38.22
-0.63,0.34,0.11,-33.25,21.21,-46.13
-0.64,0.31,0.19,-25.06,25.83,-50.82
-0.71,0.46,0.16,-26.67,28.77,-53.06
-0.68,0.68,0.21,-35.07,32.06,-49.35
-0.7,0.86,0.27,-43.96,31.71,-43.82
-0.72,0.96,0.24,-44.24,31.22,-38.01
-0.66,1.08,0.12,-5.67,33.39,-27.65
-0.61,1.2,-0.04,18.48,36.54,-15.47
-0.56,1.28,-0.12,40.95,43.05,-7.07
-0.56,1.21,-0.1,45.22,43.89,-2.94
-0.59,1.15,0.02,33.32,40.25,-2.17
-0.7,1.11,0.11,9.94,33.32,-1.89
-0.79,1.09,0.22,-34.65,25.55,0.28
-0.84,1.08,0.31,-45.92,20.72,2.73
-0.83,1.02,0.33,-61.46,20.79,2.94
-0.81,0.92,0.29,-61.67,21.91,-0.07
-0.83,0.73,0.21,-49.77,22.82,-8.61
-0.94,0.58,0.13,-27.58,25.27,-18.97
-1.17,0.54,0.08,0.42,29.12,-32.2
-1.42,0.47,0,32.55,29.89,-37.66
-1.59,0.46,-0.13,42.35,23.45,-38.36
-1.72,0.36,-0.13,39.2,10.92,-34.09
-1.59,0.22,-0.03,30.66,-1.82,-28.42
-1.32,0.18,-0.04,43.61,-15.33,-22.89
-1.02,0.26,0.02,59.85,-27.02,-17.71
-0.81,0.31,0.07,78.96,-34.72,-18.62
-0.67,0.36,-0.01,88.69,-33.53,-20.44
-0.59,0.33,-0.13,88.76,-24.08,-23.59
-0.51,0.31,-0.24,77.84,-11.06,-30.38
-0.53,0.28,-0.34,57.54,2.94,-37.03
-0.56,0.31,-0.26,42.49,10.92,-40.39
-0.63,0.46,-0.22,19.67,35.35,-54.32
-0.89,0.4,-0.45,28.77,26.81,-48.44
-0.97,0.59,-0.41,43.89,30.52,-47.74
-1.01,0.79,-0.28,53.55,36.47,-46.69
-0.94,0.88,-0.22,57.61,38.57,-43.96
-0.84,0.78,-0.12,52.22,33.88,-35.49
-0.79,0.62,-0.09,43.96,25.27,-26.53
-0.75,0.5,-0.1,37.66,19.04,-17.01
-0.77,0.37,-0.14,37.73,11.2,-7.28
-0.82,0.27,-0.22,46.41,6.79,-5.46
-0.86,0.23,-0.26,56.98,5.25,-9.17
-0.92,0.18,-0.31,66.15,4.9,-17.71
-0.89,0.18,-0.31,68.32,5.18,-25.41
-0.92,0.24,-0.29,68.25,3.22,-34.02
-0.9,0.33,-0.24,68.32,3.78,-41.16
-0.92,0.42,-0.24,62.16,9.31,-44.8
-0.88,0.52,-0.27,61.6,11.2,-47.04
-0.84,0.58,-0.26,60.83,11.34,-44.31
-0.82,0.6,-0.29,59.78,4.83,-34.58
-0.85,0.53,-0.27,68.6,4.13,-31.29
-0.82,0.53,-0.27,72.45,3.15,-31.57
-0.78,0.53,-0.24,66.22,3.5,-28.84
-0.71,0.52,-0.23,60.97,4.83,-23.73
-0.72,0.5,-0.23,57.05,7.49,-22.05
-0.78,0.44,-0.23,56.77,8.47,-22.82
-0.81,0.44,-0.2,54.88,7.91,-24.36
-0.87,0.4,-0.23,53.83,9.17,-28.84
-0.86,0.44,-0.2,49.21,7.56,-32.48
-0.87,0.43,-0.18,43.12,7.21,-34.93
-0.87,0.39,-0.23,47.74,6.72,-38.15
-0.84,0.43,-0.2,43.75,3.08,-38.5
-0.79,0.52,-0.18,35.63,-1.26,-35.14
-0.88,0.43,-0.27,39.76,0.77,-37.03
-0.88,0.46,-0.27,44.94,-2.87,-37.59
-0.88,0.46,-0.26,43.89,-4.2,-36.89
-0.88,0.44,-0.27,45.29,-4.69,-36.26
-0.86,0.51,-0.28,37.66,-4.27,-34.37
-0.93,0.5,-0.33,47.81,-5.81,-36.54
-0.95,0.51,-0.33,45.36,-8.33,-40.11
-0.91,0.55,-0.31,42.56,-6.02,-40.53
-0.86,0.52,-0.29,35.21,-6.65,-31.78
-0.87,0.47,-0.29,33.74,-3.64,-24.57
-0.93,0.42,-0.27,37.87,-3.78,-24.85
-0.91,0.44,-0.25,36.47,-7.07,-18.76
-0.94,0.46,-0.26,31.99,-9.73,-15.05
-0.93,0.48,-0.25,29.19,-12.18,-9.87
-0.97,0.49,-0.24,24.5,-14.21,-6.72
-0.95,0.48,-0.2,35.91,-15.12,-3.78
-0.94,0.54,-0.18,38.85,-20.86,3.5
-0.94,0.58,-0.16,37.73,-27.65,8.47
-0.92,0.63,-0.16,37.03,-37.52,13.23
-0.92,0.68,-0.18,33.74,-46.69,17.01
-0.92,0.72,-0.16,26.25,-53.9,21.98
-0.94,0.75,-0.15,20.51,-58.87,29.33
-0.95,0.77,-0.17,9.17,-63.21,42.49
-0.96,0.8,-0.2,-6.51,-68.74,53.06
-0.99,0.78,-0.16,-19.39,-76.72,66.57
-1.02,0.75,-0.14,-30.38,-82.25,80.99
-1.04,0.65,-0.1,-47.74,-87.15,97.93
-1.04,0.53,-0.07,-53.76,-99.05,110.46
-1.05,0.44,0.01,-62.23,-106.33,119
-0.98,0.36,0.04,-64.61,-110.46,124.53
-0.94,0.32,0.03,-60.48,-105.63,129.78
-0.96,0.3,0.01,-44.38,-88.2,123.48
-1.07,0.34,0,-50.68,-81.55,129.29
-1.17,0.32,-0.02,-52.29,-66.29,129.29
-1.32,0.16,-0.23,-54.04,-65.52,129.08
-1.36,0.12,-0.27,-40.95,-66.5,120.75
-1.35,0.13,-0.33,-21.14,-73.15,113.61
-1.18,0.33,-0.22,-11.34,-74.76,107.8
-1.03,0.52,-0.16,-6.72,-73.29,108.64
-1.05,0.53,-0.08,12.32,-76.93,106.47
-1.01,0.45,-0.05,34.58,-75.25,105.28
-0.93,0.59,-0.05,35.77,-68.04,110.67
-1.01,0.68,-0.06,24.08,-62.16,110.67
-1.08,0.65,-0.04,13.3,-58.8,103.95
-1.03,0.56,-0.02,5.18,-54.95,92.05
-0.98,0.5,-0.03,-4.13,-46.55,81.41
-0.87,0.46,-0.02,-11.83,-39.06,74.41
-0.82,0.44,-0.04,-17.01,-36.54,68.53
-0.75,0.42,-0.02,-14.91,-36.4,62.79
-0.71,0.41,0.01,-14.98,-36.33,56.28
-0.67,0.34,-0.02,-1.47,-40.74,56.21
-0.6,0.35,0.05,3.57,-34.23,49.7
-0.63,0.36,0.05,7.56,-30.59,39.13
-0.63,0.34,0.05,10.57,-31.01,31.64
-0.66,0.35,0.09,6.23,-25.76,19.6
-0.61,0.33,0.08,2.38,-17.92,10.43
-0.63,0.27,0.06,-0.07,-12.32,-1.68
-0.61,0.27,0.05,-3.43,-6.02,-9.8
-0.56,0.27,0.03,-4.62,2.24,-17.01
-0.52,0.24,0.04,-5.18,7.49,-23.66
-0.53,0.24,0.01,-2.38,6.44,-31.85
-0.53,0.26,-0.03,2.45,6.23,-40.04
-0.54,0.32,-0.02,6.58,8.82,-49.21
-0.59,0.38,0.02,8.19,10.85,-55.51
-0.63,0.48,0.07,6.02,12.25,-58.87
-0.67,0.64,0.12,1.19,13.93,-61.11
-0.7,0.75,0.15,2.31,15.96,-59.08
-0.82,0.88,0.16,9.17,16.31,-48.72
-0.8,1.18,0.22,14.91,18.69,-25.62
-0.77,1.31,0.25,29.26,18.69,-9.59
-0.71,1.34,0.21,49.35,17.29,2.17
-0.66,1.26,0.15,69.72,14.77,9.94
-0.59,1.17,0.15,73.5,12.46,11.76
-0.58,1.04,0.17,68.46,10.15,10.01
-0.61,0.92,0.17,52.71,8.61,7.49
-0.67,0.84,0.2,28.77,7.63,5.32
-0.77,0.79,0.24,4.69,7.21,3.5
-0.78,0.74,0.28,-19.81,6.23,2.38
-0.78,0.73,0.29,-30.17,0.77,1.12
-0.76,0.69,0.2,-26.95,-7.98,-0.35
-0.74,0.62,0.13,-10.85,-15.96,0.49
-0.75,0.52,0.14,9.38,-17.36,-0.21
-0.81,0.57,0.22,26.39,-3.78,-12.53
-1.06,0.5,0.1,47.53,1.05,-23.24
-1.25,0.46,-0.03,69.23,-3.01,-31.71
-1.3,0.41,-0.08,84.28,-3.92,-31.43
-1.54,0.48,-0.07,87.22,-7,-35.21
-1.69,0.39,0.25,94.92,6.3,-13.51
-1.64,0.56,0.06,96.11,-18.97,-3.71
-1.17,0.49,-0.13,101.57,-38.43,8.47
-0.78,0.5,-0.11,93.24,-45.64,10.78
-0.5,0.39,-0.12,86.31,-37.17,5.18
-0.55,0.34,-0.14,79.59,-30.31,-0.63
-0.62,0.28,-0.21,72.8,-33.81,-3.29
-0.55,0.3,-0.22,63.7,-4.69,-17.01
-0.78,0.25,-0.38,56.77,-6.16,-20.16
-0.85,0.31,-0.32,53.06,3.92,-33.39
-1.09,0.37,-0.39,45.08,9.94,-42.21
-1.06,0.53,-0.34,50.47,12.11,-43.33
-1,0.67,-0.29,61.39,18.2,-43.54
-0.92,0.7,-0.23,72.31,16.24,-33.25
-0.84,0.68,-0.2,78.47,7.84,-20.58
-0.81,0.61,-0.16,79.87,-3.22,-7.35
-0.81,0.54,-0.11,80.29,-11.2,2.52
-0.82,0.46,-0.12,79.73,-16.94,8.75
-0.87,0.26,-0.17,80.5,-20.09,9.66
-0.92,0.26,-0.24,86.17,-24.99,8.33
-0.91,0.22,-0.28,92.96,-28.21,3.71
-0.89,0.24,-0.3,95.2,-29.68,-3.29
-0.88,0.32,-0.3,95.76,-28.42,-14.07
-0.87,0.4,-0.29,94.43,-25.34,-19.95
-0.87,0.5,-0.29,91.49,-21.98,-24.22
-0.85,0.58,-0.3,87.57,-16.94,-25.27
-0.82,0.64,-0.31,82.74,-12.04,-22.75
-0.78,0.65,-0.34,78.26,-6.86,-16.17
-0.74,0.65,-0.35,80.99,-7.21,-12.6
-0.78,0.55,-0.33,86.24,-14.28,-6.65
-0.82,0.54,-0.25,87.29,-19.25,-2.1
-0.84,0.53,-0.22,87.5,-21.91,-3.22
-0.86,0.5,-0.23,87.57,-24.57,-1.26
-0.86,0.44,-0.27,87.15,-25.13,-4.34
-0.82,0.51,-0.22,86.94,-29.19,-5.25
-0.83,0.51,-0.23,85.12,-31.15,-7.07
-0.82,0.48,-0.25,86.03,-31.99,-8.75
-0.81,0.48,-0.26,86.87,-32.69,-9.38
-0.81,0.49,-0.26,86.45,-34.23,-8.4
-0.79,0.56,-0.22,77,-35.98,-3.64
-0.81,0.49,-0.3,85.33,-37.87,-2.17
-0.81,0.52,-0.27,83.86,-39.62,0.42
-0.8,0.52,-0.29,82.11,-38.5,1.05
-0.8,0.5,-0.29,80.57,-36.33,0.14
-0.81,0.5,-0.28,79.87,-35.91,-0.56
-0.81,0.51,-0.28,78.05,-35,-1.19
-0.83,0.52,-0.28,77,-34.44,-1.75
-0.84,0.53,-0.29,73.99,-33.46,-2.73
-0.85,0.53,-0.29,73.5,-33.25,-2.66
-0.83,0.52,-0.29,73.22,-34.02,-3.43
-0.83,0.49,-0.3,73.01,-35.21,-3.01
-0.85,0.46,-0.32,73.22,-37.03,-1.82
-0.86,0.45,-0.31,73.78,-37.94,-0.42
-0.88,0.43,-0.31,76.51,-38.5,1.96
-0.89,0.42,-0.3,80.36,-39.97,5.18
-0.88,0.4,-0.3,83.86,-42.7,9.66
-0.87,0.39,-0.3,86.03,-44.87,12.88
-0.88,0.39,-0.3,86.38,-46.9,14.98
-0.85,0.46,-0.28,81.9,-48.23,18.9
-0.93,0.47,-0.28,93.87,-50.19,18.76
-0.93,0.42,-0.27,95.13,-51.52,19.46
-0.95,0.43,-0.27,96.88,-54.39,20.65
-0.96,0.43,-0.27,98.77,-57.75,21.42
-0.94,0.46,-0.27,95.06,-60.41,21.28
-0.94,0.5,-0.27,90.72,-62.72,22.96
-0.94,0.5,-0.29,88.27,-62.23,27.93
-0.96,0.54,-0.29,86.94,-62.37,33.95
-0.93,0.59,-0.3,84.84,-62.93,41.51
-0.91,0.63,-0.31,85.05,-66.22,49.56
-0.87,0.63,-0.28,84.77,-71.47,58.24
-0.87,0.59,-0.23,80.5,-76.37,65.03
-0.89,0.59,-0.2,77.63,-81.69,70.14
-0.9,0.6,-0.17,76.02,-87.57,73.92
-0.91,0.61,-0.13,76.79,-96.88,77.77
-0.91,0.59,-0.08,74.41,-104.37,82.18
-0.91,0.59,-0.04,71.68,-111.58,87.85
-0.95,0.57,-0.03,70.98,-120.47,94.29
-0.98,0.54,0.02,69.72,-128.87,100.73
-1.01,0.46,-0.04,65.66,-139.72,109.27
-1,0.43,0.08,61.74,-147.7,116.62
-1.02,0.35,0.1,62.23,-151.41,118.72
-1.05,0.28,0.14,71.89,-152.11,114.52
-1.18,0.15,0.12,80.92,-147.07,107.17
-1.27,0.08,0.02,85.4,-135.45,97.16
-1.29,0.11,-0.09,82.53,-122.22,83.51
-1.2,0.15,-0.22,76.37,-109.62,70.7
-1.13,0.23,-0.33,75.39,-107.66,60.2
-1.01,0.41,-0.35,76.93,-110.81,56.56
-0.94,0.54,-0.28,75.32,-107.66,57.75
-0.9,0.71,-0.22,79.94,-107.87,60.2
-0.88,0.75,-0.14,80.36,-105.98,62.86
-0.88,0.72,-0.07,75.6,-102.76,63.21
-0.89,0.65,0.02,71.12,-102.06,59.78
-0.9,0.49,0.05,65.24,-101.99,50.61
-0.88,0.39,0.06,62.51,-99.75,40.25
-0.83,0.35,0.05,63.84,-96.67,29.68
-0.78,0.35,0.03,66.5,-91.28,20.3
-0.74,0.38,0.01,67.9,-88.48,14.56
-0.69,0.42,0,67.55,-86.03,11.83
-0.66,0.48,0.01,65.8,-85.61,10.5
-0.67,0.51,0.02,62.65,-84.35,10.22
-0.66,0.54,0.03,59.22,-82.32,8.75
-0.71,0.56,0.02,55.3,-81.76,6.23
-0.72,0.58,0.03,53.2,-79.66,2.59
-0.75,0.57,0.02,50.68,-75.46,-3.78
-0.77,0.55,-0.01,50.96,-75.46,-8.68
-0.74,0.53,-0.01,50.12,-73.57,-13.3
-0.72,0.5,-0.02,50.75,-72.17,-18.06
-0.69,0.49,-0.01,51.66,-70,-24.22
-0.68,0.5,-0.01,53.9,-67.2,-29.75
-0.68,0.51,0,56.91,-63.98,-35
-0.67,0.53,-0.01,59.29,-61.67,-39.06
-0.68,0.56,-0.02,60.55,-59.99,-42.21
-0.67,0.58,-0.02,61.39,-58.59,-44.17
-0.67,0.63,-0.01,61.25,-57.19,-45.78
-0.66,0.69,0.01,60.55,-55.44,-46.9
-0.64,0.74,0.03,59.08,-51.59,-48.65
-0.64,0.79,0.05,55.23,-46.69,-48.44
-0.64,0.83,0.09,51.45,-41.58,-47.74
-0.63,0.89,0.13,49,-35.49,-46.34
-0.63,0.88,0.15,49.49,-30.1,-42.28
-0.62,0.83,0.19,52.85,-26.46,-36.96
-0.63,0.81,0.19,59.43,-23.94,-31.57
-0.64,0.79,0.2,67.06,-22.4,-27.23
-0.65,0.82,0.18,75.81,-20.65,-24.08
-0.65,0.83,0.17,76.86,-19.46,-20.79
-0.63,0.84,0.16,71.47,-15.96,-17.92
-0.64,0.8,0.14,63.84,-12.04,-13.86
-0.7,0.77,0.09,57.82,-10.85,-10.57
-0.73,0.74,0.12,52.08,-7.21,-7.7
-0.76,0.71,0.13,45.36,-8.12,-4.83
-0.79,0.71,0.2,40.04,-8.26,-3.08
-0.82,0.67,0.26,37.1,-9.38,-1.89
-0.85,0.66,0.31,37.59,-12.18,-1.96
-0.85,0.65,0.34,39.83,-15.47,-3.29
-0.88,0.59,0.29,43.47,-19.6,-3.22
-0.92,0.58,0.27,55.44,-21.21,-4.9
-1.02,0.59,0.2,65.59,-20.79,-7.07
-1.06,0.56,0.17,76.37,-17.57,-6.3
-1.07,0.45,0.15,81.83,-14.7,0.14
-1.12,0.49,0.13,79.66,-13.23,1.19
-1.09,0.49,0.03,76.37,-12.95,0.77
-1,0.49,-0.04,80.15,-14.42,3.71
-0.93,0.51,-0.09,86.03,-17.5,7.84
-0.94,0.56,-0.1,92.19,-19.39,7.35
-0.93,0.54,-0.08,94.99,-20.93,7.07
-0.9,0.49,-0.07,93.66,-19.32,6.79
-0.85,0.42,-0.06,87.85,-17.71,4.41
-0.81,0.33,-0.03,81.83,-12.25,-2.03
-0.8,0.24,-0.06,77.42,-6.65,-10.71
-0.86,0.17,-0.11,80.43,-6.3,-18.06
-0.82,0.21,-0.06,80.15,3.78,-30.31
-0.88,0.28,-0.21,75.32,4.97,-40.88
-0.89,0.3,-0.38,79.87,4.34,-44.24
-0.85,0.39,-0.38,87.71,5.67,-44.52
-0.92,0.57,-0.34,79.24,5.67,-46.97
-0.93,0.61,-0.3,67.97,15.75,-46.13
-0.89,0.67,-0.28,53.13,22.47,-40.88
-0.84,0.68,-0.24,42.98,22.68,-35.98
-0.79,0.65,-0.21,35.84,23.45,-25.2
-0.81,0.57,-0.21,35.49,21.98,-13.37
-0.84,0.49,-0.2,38.71,19.32,-6.3
-0.89,0.43,-0.18,40.46,14.56,-2.8
-0.93,0.36,-0.17,46.34,10.92,-0.28
-0.94,0.33,-0.19,50.47,8.75,-0.49
-0.96,0.3,-0.22,58.66,6.23,-2.8
-0.96,0.28,-0.24,67.13,1.54,-3.85
-0.95,0.31,-0.26,77.07,-2.94,-4.83
-0.93,0.33,-0.26,84.21,-10.29,-2.52
-0.93,0.39,-0.24,90.37,-13.93,-1.68
-0.92,0.4,-0.25,93.03,-19.04,2.73
-0.9,0.42,-0.23,93.17,-22.61,6.65
-0.88,0.45,-0.23,90.65,-24.43,10.01
-0.87,0.44,-0.24,89.32,-25.97,11.55
-0.87,0.44,-0.23,88.41,-27.93,13.44
-0.86,0.45,-0.25,83.79,-26.53,13.72
-0.86,0.43,-0.25,79.24,-23.87,13.3
-0.87,0.42,-0.27,78.19,-20.37,11.83
-0.87,0.39,-0.27,77.42,-20.16,11.9
-0.89,0.37,-0.27,78.47,-20.3,10.85
-0.91,0.35,-0.26,81.06,-21,8.89
-0.89,0.35,-0.28,83.65,-22.05,7.7
-0.88,0.39,-0.29,85.4,-22.89,6.3
-0.88,0.41,-0.32,89.18,-23.94,5.18
-0.89,0.45,-0.3,91.84,-23.87,0.7
-0.88,0.47,-0.31,93.24,-22.89,-2.52
-0.87,0.47,-0.31,94.01,-23.03,-2.94
-0.85,0.48,-0.3,92.61,-22.96,-3.71
-0.85,0.49,-0.29,89.6,-22.75,-2.1
-0.85,0.49,-0.27,84.84,-23.17,-0.28
-0.89,0.46,-0.28,74.48,-21.35,3.08
-0.87,0.46,-0.28,80.22,-22.75,4.06
-0.86,0.47,-0.24,74.76,-24.22,5.25
-0.88,0.42,-0.25,70.98,-23.24,5.04
-0.89,0.4,-0.24,71.54,-23.66,2.59
-0.88,0.4,-0.23,67.83,-24.43,0.35
-0.88,0.4,-0.24,64.54,-23.03,-2.94
-0.87,0.4,-0.26,61.88,-22.19,-6.3
-0.85,0.43,-0.28,59.78,-21.14,-9.17
-0.86,0.43,-0.29,58.1,-19.67,-12.04
-0.88,0.44,-0.29,57.82,-18.27,-15.82
-0.89,0.45,-0.29,59.22,-17.15,-15.61
-0.9,0.48,-0.29,57.89,-17.43,-17.71
-0.91,0.43,-0.3,57.19,-17.71,-16.66
-0.4,0.39,-0.48,-127.82,69.72,-9.87
-0.71,0.62,-0.43,-98.91,86.94,-14.63
-0.98,0.55,-0.43,-74.76,89.53,-16.45
-1.16,0.48,-0.4,-57.89,76.51,-16.03
-1.23,0.4,-0.24,-51.24,64.05,-14.35
-1.21,0.31,-0.13,-60.97,43.54,-15.47
-1.09,0.26,-0.08,-67.41,31.99,-17.29
-0.98,0.29,-0.09,-69.16,23.73,-19.88
-0.91,0.36,-0.12,-69.23,21.42,-22.75
-0.86,0.43,-0.13,-69.09,20.72,-21.07
-0.84,0.48,-0.16,-67.13,22.54,-18.34
-0.82,0.49,-0.16,-69.86,26.18,-14
-0.84,0.47,-0.16,-76.09,31.08,-11.76
-0.9,0.43,-0.18,-83.93,33.11,-10.85
-0.96,0.35,-0.21,-85.89,32.27,-9.87
-0.98,0.2,-0.39,-75.46,21.91,-5.18
-0.96,0.28,-0.28,-67.48,15.61,-1.4
-0.89,0.2,-0.27,-59.78,12.11,9.59
-0.89,0.33,-0.23,-59.64,11.97,2.45
-0.89,0.33,-0.23,-58.59,15.54,-0.14
-0.91,0.42,-0.25,-59.43,20.86,-11.2
-0.93,0.45,-0.25,-61.67,27.51,-16.66
-0.94,0.48,-0.22,-66.01,31.29,-19.6
-0.95,0.48,-0.2,-72.1,33.39,-21.07
-0.96,0.44,-0.16,-77.91,33.81,-20.37
-0.96,0.43,-0.16,-82.18,31.36,-19.18
-0.95,0.41,-0.18,-82.6,30.66,-18.76
-0.92,0.43,-0.17,-82.81,30.73,-17.92
-0.9,0.44,-0.16,-83.3,31.85,-17.5
-0.9,0.46,-0.16,-83.72,32.62,-17.99
-0.9,0.46,-0.16,-83.65,32.97,-18.9
-0.9,0.45,-0.18,-83.16,31.78,-19.18
-0.89,0.44,-0.19,-81.48,28.56,-20.02
-0.87,0.45,-0.18,-79.94,27.65,-20.58
-0.87,0.46,-0.17,-78.61,29.33,-21.56
-0.89,0.45,-0.19,-79.17,28.42,-22.19
-0.9,0.43,-0.17,-76.51,27.23,-22.33
-0.91,0.42,-0.18,-73.78,25.83,-22.4
-0.92,0.39,-0.18,-66.57,22.19,-21.21
-0.93,0.4,-0.16,-60.55,18.41,-22.54
-0.93,0.39,-0.16,-55.58,14.42,-23.8
-0.91,0.4,-0.17,-49.28,11.2,-25.13
-0.9,0.43,-0.16,-44.45,9.8,-26.67
-0.89,0.45,-0.16,-40.6,7.84,-26.88
-0.88,0.47,-0.16,-39.69,6.44,-26.95
-0.87,0.49,-0.17,-37.17,5.25,-26.88
-0.87,0.5,-0.16,-34.09,4.41,-26.32
-0.88,0.55,-0.14,-33.81,2.1,-27.93
-0.85,0.49,-0.16,-29.12,3.22,-26.25
-0.85,0.5,-0.15,-28.14,2.45,-25.2
-0.85,0.5,-0.13,-26.74,1.54,-25.13
-0.87,0.49,-0.14,-25.97,-0.21,-24.01
-0.88,0.51,-0.15,-25.69,-3.43,-23.38
-0.91,0.54,-0.16,-25.97,-6.37,-21.21
-0.94,0.57,-0.16,-29.47,-8.82,-16.87
-0.89,0.58,-0.17,-36.4,-11.9,-10.57
-0.9,0.51,-0.1,-46.83,-10.71,-6.02
-0.89,0.51,-0.06,-62.72,-10.71,3.36
-0.92,0.49,-0.03,-71.61,-14.7,12.6
-0.94,0.49,-0.03,-82.67,-19.11,19.53
-0.93,0.48,-0.03,-90.65,-24.85,28.14
-0.98,0.44,0.03,-98.77,-34.02,34.37
-1.02,0.39,0.03,-95.34,-46.13,41.93
-1.03,0.38,0.09,-90.79,-61.32,51.31
-1.06,0.48,0.12,-78.82,-70.21,63.28
-1.25,0.59,0.12,-71.26,-73.5,71.26
-1.25,0.62,0.01,-56.91,-72.66,76.44
-1.31,0.57,-0.09,-47.6,-73.99,81.83
-1.22,0.5,0.12,-42.98,-70.28,86.1
-1.11,0.48,0.04,-45.15,-60.34,87.99
-1,0.45,0.04,-38.78,-52.29,93.31
-0.87,0.44,0,-32.76,-41.58,98.98
-0.83,0.41,-0.07,-29.89,-31.15,106.12
-0.84,0.44,-0.12,-25.83,-17.36,106.89
-0.91,0.5,-0.34,-35.42,-17.22,93.17
-0.91,0.45,-0.21,-37.17,1.19,86.45
-0.9,0.48,-0.2,-38.71,22.89,76.23
-0.83,0.55,-0.17,-40.39,40.39,66.71
-0.79,0.61,-0.11,-43.33,57.61,59.57
-0.77,0.63,-0.08,-45.64,69.79,57.75
-0.78,0.63,-0.05,-49.28,78.75,63.14
-0.77,0.65,-0.02,-54.11,78.75,74.76
-0.8,0.64,-0.04,-56,73.01,79.1
-0.78,0.6,-0.04,-52.92,69.16,77.63
-0.8,0.56,-0.04,-49.77,71.82,75.18
-0.85,0.55,-0.09,-54.25,72.66,68.67
-0.87,0.52,-0.15,-71.33,73.36,61.81
-0.92,0.44,-0.13,-77,71.61,58.17
-0.97,0.34,-0.18,-83.37,66.92,55.86
-0.94,0.62,0.05,-86.45,62.86,46.9
-0.95,0.45,-0.01,-69.58,66.78,45.57
-0.94,0.5,-0.04,-71.82,63.14,43.4
-0.9,0.51,-0.03,-73.5,59.01,39.9
-0.85,0.5,0,-76.72,55.93,35.49
-0.79,0.53,0.01,-79.03,52.08,32.62
-0.77,0.54,0.02,-82.74,49.63,30.8
-0.77,0.5,0.02,-82.81,45.71,28.84
-0.74,0.46,0.03,-83.72,44.8,22.68
-0.77,0.43,0.04,-81.55,43.82,20.51
-0.8,0.41,0.05,-78.89,41.09,15.89
-0.8,0.4,0.06,-74.48,38.5,13.37
-0.8,0.36,0.06,-67.13,36.89,9.73
-0.78,0.34,0.06,-54.88,35.28,4.62
-0.78,0.37,0.02,-44.73,31.01,-3.99
-0.74,0.39,0.01,-40.32,24.57,-8.82
-0.73,0.4,0.02,-36.12,18.55,-10.29
-0.74,0.45,0.04,-25.9,18.69,-10.29
-0.72,0.49,0.07,-20.79,17.08,-13.02
-0.72,0.53,0.06,-16.38,17.71,-14.84
-0.72,0.61,0.06,-13.37,18.62,-15.33
-0.69,0.69,0.06,-14.98,21.7,-15.96
-0.67,0.73,0.04,-16.66,24.29,-17.99
-0.66,0.78,0.03,-17.29,27.79,-19.39
-0.64,0.8,0.03,-19.39,31.15,-20.58
-0.63,0.81,0.03,-17.92,35.49,-21.91
-0.64,0.83,0.02,-14.56,39.76,-23.1
-0.63,0.87,0.06,-13.37,42.14,-21.91
-0.62,0.9,0.06,-14.91,40.6,-17.92
-0.72,0.94,0.03,-14.35,29.54,-12.81
-0.71,0.92,0.04,-8.61,28,-6.09
-0.68,0.93,0.07,-4.55,24.71,-1.82
-0.63,0.89,0.13,-3.36,26.53,-0.7
-0.61,0.88,0.14,-7.14,28.56,-3.22
-0.63,0.84,0.12,-15.54,28.98,-7.91
-0.78,0.8,0.09,-24.78,28.56,-14.56
-1.04,0.82,0.08,-27.93,30.94,-24.57
-1.38,0.84,-0.01,-19.18,31.22,-33.74
-1.6,0.73,-0.18,-5.81,22.4,-26.74
-1.57,0.59,-0.11,-3.57,15.89,-18.83
-1.43,0.49,-0.02,-4.62,7.28,-13.44
-1.27,0.41,-0.06,1.89,0.42,-8.26
-1.13,0.36,-0.06,17.01,-14.35,-3.85
-0.95,0.37,0,33.32,-24.15,-3.92
-0.67,0.22,-0.04,52.22,-30.59,-1.47
-0.62,0.21,-0.1,59.92,-28.7,-10.78
-0.55,0.15,-0.23,55.72,-25.97,-17.78
-0.5,0.2,-0.29,42.56,-17.08,-28.7
-0.58,0.25,-0.33,24.5,-0.91,-40.74
-0.74,0.39,-0.34,3.5,14.42,-52.92
-0.93,0.56,-0.37,-12.53,31.99,-64.26
-1.15,0.66,-0.39,-19.18,36.05,-63.14
-1.09,0.87,-0.37,-12.81,43.05,-57.96
-0.98,0.73,-0.31,-11.34,46.76,-50.54
-0.78,0.62,-0.19,-11.34,48.79,-38.85
-0.72,0.58,-0.14,-17.5,45.57,-31.64
-0.73,0.45,-0.09,-19.67,41.37,-21.77
-0.83,0.39,-0.13,-14.63,31.57,-15.68
-0.89,0.35,-0.19,-12.53,27.51,-14.42
-0.92,0.3,-0.25,-10.85,26.32,-17.43
-0.95,0.25,-0.26,-7.91,27.23,-23.03
-0.93,0.21,-0.22,-6.79,28,-33.74
-0.86,0.3,-0.16,-14.07,27.09,-41.44
-0.82,0.36,-0.11,-17.36,27.72,-45.57
-0.85,0.47,-0.11,-4.97,25.41,-43.61
-0.86,0.53,-0.1,-4.06,22.05,-40.39
-0.85,0.6,-0.12,1.12,19.81,-36.19
-0.86,0.65,-0.12,4.27,17.57,-30.38
-0.87,0.71,-0.13,1.89,15.82,-24.36
-0.82,0.66,-0.13,4.06,12.88,-17.5
-0.79,0.62,-0.11,-0.56,13.09,-13.16
-0.82,0.55,-0.11,-3.43,16.73,-11.9
-0.79,0.51,-0.25,-5.32,15.54,-13.02
-0.78,0.46,-0.15,-5.32,19.53,-12.95
-0.87,0.43,-0.16,-4.62,22.4,-15.33
-0.91,0.39,-0.15,-3.71,23.73,-18.76
-0.98,0.34,-0.17,-0.14,22.75,-21.56
-0.99,0.3,-0.16,3.92,21.98,-24.99
-0.99,0.29,-0.18,8.33,19.74,-29.96
-0.93,0.3,-0.17,4.62,16.1,-29.68
-1,0.17,-0.26,9.31,20.65,-39.97
-1.03,0.29,-0.33,14.28,1.75,-42.42
-0.92,0.41,-0.15,4.97,5.25,-40.25
-0.91,0.28,-0.24,6.37,10.08,-48.86
-0.9,0.31,-0.22,10.99,8.54,-49.63
-0.87,0.38,-0.16,11.83,6.86,-49
-0.85,0.37,-0.17,15.4,5.04,-47.67
-0.85,0.4,-0.18,20.16,3.57,-45.71
-0.88,0.42,-0.2,25.83,1.89,-42.91
-0.89,0.45,-0.21,29.33,2.45,-40.25
-0.9,0.48,-0.23,31.5,6.44,-41.09
-0.89,0.44,-0.25,30.8,8.47,-39.69
-0.88,0.46,-0.21,32.69,8.12,-35.35
-0.88,0.45,-0.19,32.62,4.69,-30.38
-0.91,0.43,-0.19,40.39,-0.56,-25.06
-0.89,0.43,-0.21,47.04,-8.47,-21.49
-0.87,0.46,-0.26,52.22,-13.79,-19.11
-0.86,0.46,-0.3,57.33,-19.39,-14.98
-0.85,0.47,-0.3,64.26,-25.9,-10.15
-0.83,0.45,-0.28,69.23,-27.02,-6.79
-0.83,0.47,-0.23,69.23,-24.36,-4.83
-0.79,0.43,-0.21,64.89,-18.69,-5.11
-0.86,0.28,-0.44,68.32,-34.72,3.5
-0.89,0.39,-0.41,70.63,-58.17,5.67
-0.92,0.35,-0.5,64.89,-100.8,33.32
-1.14,0.45,-0.43,77.77,-125.51,41.44
-1.06,0.25,-0.33,81.13,-127.19,66.08
-1.03,0.32,-0.21,61.81,-108.08,72.94
-1.23,0.29,-0.02,64.89,-126.28,64.89
-1.25,0.19,-0.08,62.16,-101.29,72.87
-1.18,0.24,-0.02,32.55,-91.84,84.42
-1.3,0.34,0.08,28.91,-81.83,69.93
-1.17,0.29,0.08,24.15,-79.73,63.21
-1.08,0.3,0.09,20.86,-82.39,56.35
-0.89,0.24,0.04,29.61,-84.35,58.17
-0.91,0.27,-0.03,29.47,-86.38,52.57
-0.85,0.33,-0.12,12.74,-84.07,47.6
-0.86,0.23,-0.82,-15.26,-86.87,48.72
-0.76,0.3,0.14,-49.21,-72.31,40.04
-1.06,0.49,0.09,-37.66,-55.16,34.72
-1.04,0.47,0.05,-20.79,-28.49,19.04
-1,0.42,0.06,-8.12,-15.61,14.14
-0.98,0.38,0.04,2.03,-8.05,13.58
-0.99,0.32,0.01,10.36,-6.37,14.7
-0.97,0.31,0.01,15.96,-3.01,14.56
-1.02,0.33,0.02,17.71,-3.64,16.03
-1.02,0.35,0.04,19.95,0.49,15.12
-1.05,0.39,0.05,20.16,0.63,14.49
-1.03,0.4,0.05,22.33,0.63,12.95
-0.96,0.37,0.09,21.49,4.83,13.02
-1.01,0.37,-0.01,12.11,-1.68,12.04
-0.97,0.34,0.03,9.03,-3.85,11.83
-0.91,0.28,0.09,6.37,1.61,12.74
-0.89,0.34,0.09,1.96,8.12,10.5
-0.88,0.37,0.09,-3.01,12.81,6.72
-0.89,0.34,0.09,-1.96,15.89,3.78
-0.87,0.41,0.11,-1.68,19.11,0.07
-0.84,0.38,0.09,-1.54,19.81,-0.63
-0.83,0.4,0.1,-0.07,17.43,-2.31
-0.82,0.42,0.08,-0.84,12.74,-2.73
-0.83,0.41,0.03,-2.94,4.83,1.19
-0.84,0.5,0,-2.52,2.17,2.8
-0.85,0.51,-0.04,-3.85,3.5,2.59
-0.83,0.5,-0.05,-8.4,3.99,10.29
-0.85,0.51,-0.04,-10.15,0.77,19.32
-0.92,0.58,0.01,-8.68,-8.33,28.77
-0.96,0.57,0.02,-5.18,-17.92,36.05
-0.96,0.64,-0.06,19.25,-19.04,36.05
-0.9,0.69,-0.03,11.69,-28.49,42.07
-0.82,0.67,-0.04,24.22,-27.23,41.65
-0.86,0.63,-0.06,49.07,-18.2,37.24
-0.82,0.67,0.05,49.91,-11.83,47.46
-0.83,0.74,0.03,45.64,-0.77,47.04
-0.86,0.7,0.1,52.92,3.92,46.06
-0.88,0.77,0.08,43.26,2.31,38.92
-0.75,0.88,0.1,10.57,11.83,48.3
-0.9,0.48,0.12,24.08,6.44,55.93
-0.72,1.02,0.02,-14.35,20.02,57.68
-0.74,0.93,0.1,-52.15,25.48,64.68
-0.77,0.81,0.11,-28.98,31.15,62.86
-0.77,0.8,-0.02,-49.7,36.26,62.3
-0.78,0.79,-0.05,-64.54,47.25,53.69
-0.81,0.72,-0.01,-62.65,43.96,54.95
-0.89,0.65,0.01,-55.86,45.36,56.63
-0.84,0.68,0.03,-52.29,40.32,54.25
-0.89,0.61,0.02,-52.85,37.87,54.95
-0.91,0.62,0,-48.93,33.53,52.57
-0.9,0.63,0,-46.2,28.07,50.54
-0.93,0.61,0,-46.06,21.77,48.37
-0.91,0.57,0.04,-43.89,15.12,48.09
-0.9,0.54,0.07,-40.6,8.4,47.81
-0.86,0.54,0.03,-34.09,3.71,46.48
-0.8,0.56,0.08,-31.15,-1.82,43.26
-0.8,0.57,0.09,-27.09,-8.68,42.07
-0.79,0.63,0.08,-26.25,-13.51,39.69
-0.77,0.62,0.11,-26.88,-17.57,41.79
-0.78,0.53,0.05,-20.86,-14.21,40.95
-0.72,0.61,0.05,-18.48,-18.06,38.5
-0.63,0.51,0.08,-17.78,-20.23,35.7
-0.66,0.54,0.1,-19.6,-15.61,33.53
-0.65,0.6,0.05,-28.77,-19.67,28.56
-0.62,0.65,0.09,-26.67,-22.12,24.22
-0.62,0.7,0.08,-29.05,-22.96,21.21
-0.62,0.65,0.07,-30.66,-25.06,19.25
-0.63,0.62,0.07,-29.33,-28.63,18.83
-0.62,0.62,0.07,-29.33,-27.44,15.54
-0.59,0.61,0.09,-27.44,-26.32,10.99
-0.56,0.59,0.1,-25.06,-24.64,5.67
-0.54,0.53,0.14,-21.98,-25.27,-0.98
-0.5,0.54,0.14,-23.03,-21.7,-11.76
-0.36,0.43,0.32,-14.84,-5.74,-12.95
-0.48,0.56,0.16,-12.81,-11.83,-26.25
-0.47,0.56,0.12,-11.34,-2.52,-31.64
-0.55,0.6,0.09,-10.43,-0.14,-35.14
-0.59,0.63,0.08,-12.11,2.1,-38.29
-0.63,0.69,0.06,-13.72,1.89,-39.13
-0.64,0.71,0.04,-16.52,7.91,-41.72
-0.66,0.76,0.02,-16.8,8.47,-41.02
-0.68,0.82,0.02,-11.69,11.2,-41.09
-0.69,0.84,0.03,-2.94,14.42,-38.01
-0.68,0.88,0.07,4.83,16.45,-36.12
-0.72,0.89,0.09,6.72,14.14,-32.62
-0.75,0.87,0.14,6.93,9.24,-28.84
-0.81,0.81,0.16,11.34,4.83,-24.92
-0.93,0.71,0.17,18.27,1.89,-24.01
-1.15,0.68,0.19,28.98,3.01,-29.4
-1.46,0.79,0.19,39.27,4.41,-36.61
-1.66,0.86,0.13,42.98,4.55,-39.76
-1.59,0.63,0.13,40.95,-0.07,-26.74
-1.4,0.61,0.03,36.82,-12.25,-18.06
-1.15,0.5,0,41.93,-22.89,-11.55
-0.88,0.44,-0.01,57.47,-26.32,-7.56
-0.71,0.49,-0.05,66.71,-30.52,-4.69
-0.61,0.48,-0.09,70.84,-29.96,-7.42
-0.56,0.43,-0.12,73.22,-29.75,-9.66
-0.58,0.45,-0.11,69.86,-26.18,-11.41
-0.66,0.41,-0.11,64.26,-15.68,-15.82
-0.73,0.52,-0.09,50.19,5.25,-30.38
-0.78,0.5,-0.05,31.71,18.9,-47.04
-0.88,0.39,-0.22,25.41,24.5,-53.55
-0.88,0.56,-0.16,22.33,20.93,-54.25
-0.88,0.63,-0.16,14.21,23.38,-51.94
-0.87,0.7,-0.12,10.22,26.74,-47.25
-0.93,0.73,-0.13,4.9,29.75,-42.98
-0.88,0.65,-0.17,9.52,24.78,-34.3
-0.88,0.63,-0.16,12.39,17.64,-25.2
-0.85,0.58,-0.15,15.4,13.86,-21.07
-0.84,0.48,-0.14,19.39,7.35,-15.82
-0.87,0.4,-0.14,34.58,5.67,-13.23
-0.86,0.38,-0.13,45.5,1.82,-12.6
-0.87,0.35,-0.11,50.05,-1.75,-13.79
-0.86,0.36,-0.12,45.78,-5.18,-16.8
-0.87,0.36,-0.11,44.52,-8.26,-20.23
-0.86,0.4,-0.14,45.71,-8.05,-23.03
-0.87,0.45,-0.16,51.59,-8.12,-26.46
-0.86,0.51,-0.16,56.21,-8.47,-26.88
-0.86,0.55,-0.15,59.29,-6.37,-27.37
-0.8,0.55,-0.16,59.64,-7,-25.2
-0.78,0.55,-0.13,57.33,-5.46,-22.61
-0.78,0.54,-0.12,50.54,-2.1,-21.91
-0.8,0.54,-0.12,41.58,1.96,-21.49
-0.82,0.53,-0.14,30.94,4.97,-22.54
-0.86,0.51,-0.15,26.53,6.58,-25.41
-0.86,0.52,-0.15,23.8,9.03,-28.77
-0.91,0.52,-0.14,22.89,12.74,-31.71
-0.86,0.52,-0.17,25.06,12.39,-35.56
-0.86,0.52,-0.15,23.73,11.83,-36.54
-0.85,0.5,-0.15,22.19,11.27,-37.59
-0.76,0.55,-0.1,15.82,7.49,-23.31
-0.89,0.37,-0.17,23.38,12.6,-36.12
-0.83,0.45,-0.15,25.83,10.29,-34.02
-0.82,0.49,-0.12,22.75,7.28,-31.5
-0.87,0.48,-0.16,28.21,9.66,-34.51
-0.87,0.54,-0.15,26.6,7.77,-34.51
-0.81,0.6,-0.1,18.62,4.9,-24.92
-0.86,0.48,-0.15,16.17,8.33,-32.13
-0.82,0.51,-0.14,17.99,9.52,-33.25
-0.79,0.55,-0.11,12.46,5.81,-33.53
-0.79,0.51,-0.13,11.83,5.74,-34.3
-0.73,0.55,-0.11,2.66,3.5,-29.05
-0.83,0.44,-0.2,9.38,8.19,-37.94
-0.83,0.52,-0.15,6.3,6.23,-39.83
-0.83,0.5,-0.17,5.32,7.07,-40.11
-0.84,0.51,-0.17,4.27,9.31,-41.02
-0.85,0.5,-0.17,2.66,9.52,-40.46
-0.87,0.48,-0.19,2.31,7.56,-38.85
-0.88,0.48,-0.2,1.96,7.49,-38.71
-0.78,0.59,-0.17,-10.01,4.76,-30.1
-0.93,0.37,-0.26,3.99,8.54,-34.58
-0.91,0.47,-0.22,3.57,8.4,-35.21
-0.89,0.45,-0.22,-0.98,8.12,-31.08
-0.94,0.43,-0.23,3.01,13.93,-34.02
-0.91,0.4,-0.21,0.91,12.67,-31.15
-0.88,0.5,-0.17,-7.28,10.01,-21.7
-0.96,0.42,-0.22,-7.21,14.21,-26.32
-0.96,0.48,-0.2,-1.19,16.24,-28.98
-1,0.51,-0.18,-0.14,15.19,-27.93
-1.02,0.53,-0.19,1.61,12.88,-29.54
-1,0.54,-0.18,0.77,7.98,-28.7
-0.99,0.6,-0.21,-1.61,2.66,-27.37
-1,0.67,-0.24,-3.64,-4.27,-21.77
-1.04,0.7,-0.28,-7.28,-9.94,-11.48
-1.04,0.72,-0.25,-9.45,-14.77,0.77
-1.04,0.73,-0.23,-10.5,-23.1,17.99
-1.04,0.73,-0.21,-15.12,-33.74,30.31
-1.04,0.74,-0.18,-21.49,-43.82,41.65
-1.02,0.73,-0.14,-30.38,-56.77,52.22
-0.98,0.7,-0.06,-41.37,-66.64,65.66
-0.92,0.65,0.03,-51.31,-79.17,75.18
-0.86,0.57,0.07,-57.54,-86.24,85.96
-0.81,0.52,0.09,-64.82,-92.54,93.66
-0.81,0.52,0.1,-71.61,-99.12,100.52
-0.82,0.5,0.09,-81.06,-98.77,107.52
-0.9,0.35,-0.11,-73.71,-103.18,115.57
-0.91,0.4,0.14,-68.6,-104.3,123.2
-1,0.35,0.15,-67.2,-96.81,129.5
-1.08,0.33,0.11,-68.53,-85.12,130.13
-1.28,0.28,-0.08,-67.9,-80.22,126.98
-1.27,0.3,-0.29,-69.86,-75.25,118.86
-1.29,0.2,-0.41,-52.43,-72.17,102.27
-1.2,0.31,-0.4,-33.04,-71.47,94.01
-1,0.49,-0.3,-18.69,-64.26,89.88
-0.9,0.64,-0.23,5.25,-61.18,92.68
-0.86,0.73,-0.1,26.67,-55.79,93.52
-0.8,0.65,-0.04,39.55,-50.05,99.75
-0.79,0.69,0.04,42.07,-45.92,111.93
-0.82,0.7,0.09,37.52,-34.58,114.1
-0.9,0.64,0.06,33.67,-22.12,110.46
-0.98,0.56,0.05,30.03,-15.54,103.81
-0.85,0.57,0.08,15.33,-6.02,96.25
-0.83,0.56,0.09,7.07,5.39,84.56
-0.74,0.6,0.06,-4.13,16.94,76.93
-0.71,0.55,0.02,-10.29,22.54,70.7
-0.64,0.5,0.01,-10.29,23.94,69.51
-0.63,0.55,0.04,-17.78,26.32,64.05
-0.57,0.55,0.04,-24.71,34.02,51.59
-0.52,0.5,0.02,-27.37,37.8,44.38
-0.68,0.45,0.02,-27.3,41.86,35.42
-0.74,0.42,0.02,-27.51,43.47,28.56
-0.75,0.4,-0.12,-30.45,41.37,22.12
-0.75,0.33,0,-31.57,39.69,15.47
-0.72,0.32,0.02,-35.28,36.75,5.88
-0.72,0.21,0.03,-33.95,34.58,-1.61
-0.69,0.16,0.05,-28.77,33.88,-6.79
-0.66,0.13,0.06,-19.67,33.67,-14.35
-0.64,0.14,0.07,-8.68,33.11,-21.28
-0.61,0.17,0.09,2.1,32.9,-29.4
-0.61,0.24,0.11,9.17,32.69,-38.08
-0.62,0.34,0.16,11.06,33.95,-43.96
-0.69,0.56,0.14,11.48,31.99,-51.59
-0.82,0.71,0.09,16.1,26.32,-54.04
-0.96,0.84,0.02,27.72,21.07,-53.2
-1.05,0.97,0,35.84,9.73,-45.99
-0.93,0.99,0.08,42.56,-0.49,-35.14
-0.83,0.97,0.15,44.45,-7.49,-28.28
-0.68,0.98,0.22,39.62,-13.44,-18.13
-0.62,0.94,0.24,31.78,-15.75,-13.79
-0.5,0.96,0.15,28.84,-14.14,-8.96
-0.43,0.97,-0.01,41.79,-6.93,-4.48
-0.36,0.95,-0.15,58.03,4.34,1.26
-0.33,0.94,-0.2,70.07,12.74,8.12
-0.45,0.98,-0.09,73.01,17.22,9.59
-0.5,1.05,0.02,73.08,22.89,6.86
-0.58,1.11,0.07,64.33,30.03,2.38
-0.87,1.2,0.09,42.84,32.97,-10.08
-1.37,1.35,-0.02,32.9,21.07,-21.07
-1.63,1.33,-0.1,21.07,7.91,-17.08
-1.53,1,0,-2.52,14.28,2.59
-1.31,0.73,0.06,-25.69,22.82,15.61
-1.12,0.43,0.04,-29.61,14.42,20.58
-1.06,0.12,0.07,-17.92,-1.75,19.53
-0.96,-0.04,0.12,5.81,-15.68,12.67
-0.91,-0.06,0.03,37.59,-35.63,2.24
-0.85,-0.25,-0.09,65.38,-48.51,-14.28
-0.84,-0.3,-0.21,90.51,-59.71,-23.59
-0.81,-0.2,-0.23,103.18,-68.18,-32.27
-0.88,0.03,-0.2,101.78,-65.66,-44.1
-1.01,0.31,-0.19,98.14,-63.49,-50.05
-1.08,0.6,-0.19,89.53,-47.46,-57.19
-1.1,0.92,-0.19,84.63,-32.69,-57.19
-0.97,1.01,-0.22,69.58,-12.67,-50.33
-0.83,1.01,-0.22,55.02,-4.2,-42.07
-0.64,0.88,-0.17,46.97,0.14,-24.08
-0.59,0.69,-0.16,37.59,0.84,-9.38
-0.64,0.59,-0.14,28.14,-7,4.69
-0.75,0.49,-0.13,23.87,-9.03,10.43
-0.87,0.39,-0.18,35.91,-12.04,8.61
-0.94,0.35,-0.2,42.28,-14.14,2.87
-0.98,0.34,-0.2,35.7,-12.6,-7.91
-0.97,0.3,-0.19,34.16,-12.18,-21.14
-0.95,0.34,-0.22,38.99,-14.84,-28.14
-0.94,0.41,-0.2,43.19,-17.5,-32.55
-0.92,0.5,-0.18,45.78,-19.32,-35.77
-0.89,0.59,-0.17,44.66,-20.02,-36.82
-0.84,0.67,-0.19,41.79,-18.76,-38.08
-0.79,0.69,-0.2,39.48,-17.64,-34.3
-0.76,0.73,-0.22,35.35,-15.12,-30.94
-0.78,0.7,-0.23,34.79,-15.75,-26.67
-0.77,0.69,-0.21,31.57,-14.56,-23.31
-0.8,0.67,-0.2,27.93,-12.53,-20.72
-0.83,0.63,-0.19,25.48,-11.76,-18.97
-0.84,0.58,-0.18,21.84,-10.71,-19.18
-0.86,0.52,-0.18,22.05,-10.15,-21.07
-0.85,0.5,-0.17,21.56,-9.38,-23.94
-0.86,0.47,-0.15,21.07,-8.75,-26.67
-0.85,0.46,-0.17,23.17,-9.17,-28.21
-0.86,0.47,-0.16,24.15,-9.66,-29.89
-0.88,0.47,-0.15,27.16,-11.41,-29.33
-0.89,0.48,-0.14,29.75,-14.84,-27.44
-0.9,0.49,-0.13,32.97,-18.83,-25.83
-0.91,0.48,-0.14,36.33,-22.4,-23.87
-0.9,0.47,-0.15,40.11,-25.83,-23.73
-0.88,0.46,-0.15,42.84,-27.65,-25.2
-0.86,0.46,-0.16,44.8,-28.21,-26.95
-0.84,0.48,-0.17,43.19,-27.86,-28.84
-0.83,0.48,-0.18,42.84,-27.65,-30.94
-0.83,0.5,-0.17,42.84,-25.69,-33.25
-0.8,0.6,-0.12,33.53,-22.12,-32.55
-0.84,0.52,-0.2,44.45,-22.96,-36.19
-0.79,0.59,-0.18,41.09,-23.87,-35.07
-0.76,0.65,-0.17,35.91,-23.03,-31.08
-0.76,0.68,-0.17,23.59,-21,-30.66
-0.79,0.59,-0.19,25.69,-14.35,-31.99
-0.77,0.64,-0.18,22.26,-12.67,-28.49
-0.75,0.64,-0.16,18.76,-11.06,-26.81
-0.76,0.63,-0.16,12.25,-12.32,-24.08
-0.77,0.58,-0.15,9.8,-6.86,-26.95
-0.79,0.58,-0.14,7.42,-4.76,-27.09
-0.82,0.57,-0.16,6.16,-4.62,-27.79
-0.84,0.58,-0.16,3.29,-7.7,-28.77
-0.85,0.54,-0.15,2.8,-5.39,-29.89
-0.86,0.56,-0.17,-0.42,-6.23,-28.56
-0.87,0.56,-0.15,-2.73,-7.42,-29.68
-0.87,0.57,-0.16,-2.73,-4.9,-29.33
-0.88,0.55,-0.15,-3.99,-5.04,-28.84
-0.88,0.53,-0.15,-6.86,-5.74,-27.51
-0.87,0.51,-0.13,-6.72,-8.68,-26.88
-0.87,0.47,-0.14,-4.06,-5.88,-26.95
-0.88,0.47,-0.14,-3.85,-6.23,-24.85
-0.89,0.49,-0.14,-2.38,-7.91,-27.02
-0.91,0.49,-0.15,-0.98,-6.65,-29.05
-0.93,0.54,-0.16,-3.36,-8.05,-28.7
-0.92,0.59,-0.16,-5.95,-11.9,-28.91
-0.92,0.6,-0.16,-7.56,-17.15,-29.61
-0.87,0.67,-0.18,-12.18,-19.25,-24.78
-0.86,0.7,-0.18,-17.29,-19.25,-21.7
-0.87,0.72,-0.18,-22.4,-17.99,-17.15
-0.89,0.75,-0.18,-29.4,-16.66,-10.43
-0.92,0.74,-0.19,-37.24,-15.68,-3.36
-0.95,0.75,-0.2,-43.26,-18.34,2.59
-0.98,0.73,-0.21,-48.09,-24.22,9.17
-0.98,0.75,-0.22,-50.4,-33.74,14.98
-0.96,0.76,-0.19,-51.87,-42,22.68
-0.95,0.73,-0.12,-51.52,-49.98,51.45
-0.95,0.7,-0.04,-50.05,-56.14,48.79
-0.97,0.66,0.01,-50.75,-65.8,60.34
-1,0.6,0.03,-51.87,-76.16,72.73
-0.95,0.52,0.04,-50.75,-87.92,89.53
-0.88,0.49,0.07,-52.78,-95.76,101.85
